// General information: 
//  MT Manager version: 2022.2.0 
//  XDA version: 2022.2.0 build 7381 rev 124627 built on 2023-07-19
// Device information: 
//  DeviceId: 00B4CB9F
//  ProductCode: MTW2-3A7G6
//  Firmware Version: 4.6.0
//  Hardware Version: 2.0.0
// Device settings: 
//  Filter Profile: human(46.1)
//  Option Flags: Orientation Smoother Disabled, Position/Velocity Smoother Disabled, Continuous Zero Rotation Update Disabled, AHS Disabled, ICC Disabled
// Coordinate system: ENU
PacketCounter	Acc_X	Acc_Y	Acc_Z	Gyr_X	Gyr_Y	Gyr_Z	Mat[1][1]	Mat[2][1]	Mat[3][1]	Mat[1][2]	Mat[2][2]	Mat[3][2]	Mat[1][3]	Mat[2][3]	Mat[3][3]
15701	9.482927	-1.638198	2.296594	0.009568	-0.041958	0.025926	-0.064428	-0.298766	0.952149	0.643887	-0.741393	-0.189065	0.762403	0.600896	0.240138
15702	9.488956	-1.570779	2.159499	-0.019758	-0.033580	0.013384	-0.064013	-0.298665	0.952209	0.643782	-0.741431	-0.189274	0.762526	0.600899	0.239736
15703	9.445153	-1.551864	2.043429	-0.053037	-0.044153	0.002085	-0.063594	-0.298402	0.952319	0.643416	-0.741706	-0.189442	0.762870	0.600690	0.239165
15704	9.518011	-1.621286	2.076625	-0.082495	-0.052612	-0.006467	-0.063160	-0.298040	0.952462	0.642820	-0.742179	-0.189612	0.763409	0.600285	0.238462
15705	9.423296	-1.746620	2.090881	-0.111017	-0.051010	-0.009875	-0.062765	-0.297647	0.952610	0.642003	-0.742837	-0.189803	0.764129	0.599665	0.237715
15706	9.431231	-1.895824	2.149524	-0.112604	-0.063752	-0.008527	-0.062259	-0.297203	0.952782	0.641173	-0.743497	-0.190024	0.764866	0.599068	0.236848
15707	9.470213	-1.984664	2.195269	-0.107338	-0.070220	-0.004883	-0.061683	-0.296734	0.952966	0.640386	-0.744117	-0.190252	0.765572	0.598531	0.235924
15708	9.512798	-1.965774	2.302732	-0.089101	-0.060635	0.003270	-0.061125	-0.296397	0.953107	0.639743	-0.744600	-0.190527	0.766155	0.598097	0.235131
15709	9.349427	-1.948171	2.376681	-0.076071	-0.047755	0.012984	-0.060606	-0.296195	0.953203	0.639205	-0.744979	-0.190851	0.766645	0.597725	0.234479
15710	9.266376	-1.837039	2.436934	-0.080573	-0.046289	0.010126	-0.060113	-0.295996	0.953296	0.638630	-0.745390	-0.191171	0.767162	0.597311	0.233839
15711	9.263628	-1.797808	2.435427	-0.103108	-0.039143	-0.000323	-0.059745	-0.295747	0.953396	0.637875	-0.745969	-0.191430	0.767819	0.596711	0.233218
15712	9.283620	-1.811604	2.420373	-0.119581	-0.028254	-0.009545	-0.059515	-0.295509	0.953484	0.636988	-0.746670	-0.191652	0.768573	0.595952	0.232674
15713	9.284013	-1.845971	2.452769	-0.128399	-0.016409	-0.008053	-0.059371	-0.295340	0.953546	0.636033	-0.747421	-0.191896	0.769374	0.595094	0.232221
15714	9.265570	-1.820727	2.440741	-0.139566	-0.009050	-0.011232	-0.059299	-0.295204	0.953592	0.634989	-0.748244	-0.192147	0.770242	0.594127	0.231821
15715	9.284470	-1.883028	2.482949	-0.149135	0.006461	-0.013617	-0.059366	-0.295129	0.953611	0.633869	-0.749132	-0.192384	0.771159	0.593044	0.231546
15716	9.314374	-2.038860	2.476764	-0.148854	0.027760	-0.011996	-0.059583	-0.295205	0.953574	0.632751	-0.750009	-0.192649	0.772060	0.591896	0.231479
15717	9.214411	-2.091785	2.464666	-0.132792	0.046309	-0.003346	-0.059893	-0.295443	0.953481	0.631760	-0.750767	-0.192947	0.772847	0.590815	0.231615
15718	9.209278	-2.068876	2.489759	-0.110162	0.059236	-0.001971	-0.060290	-0.295780	0.953352	0.630944	-0.751383	-0.193218	0.773482	0.589863	0.231922
15719	9.211155	-2.129358	2.507649	-0.102462	0.080402	-0.004085	-0.060868	-0.296214	0.953180	0.630187	-0.751961	-0.193439	0.774054	0.588908	0.232441
15720	9.231201	-2.249681	2.571691	-0.080645	0.087699	-0.002391	-0.061489	-0.296714	0.952985	0.629599	-0.752403	-0.193639	0.774483	0.588091	0.233076
15721	9.241570	-2.263045	2.437161	-0.061850	0.093909	-0.001658	-0.062158	-0.297245	0.952776	0.629157	-0.752733	-0.193790	0.774789	0.587400	0.233802
15722	9.328603	-2.156107	2.313100	-0.055102	0.097351	-0.005517	-0.062874	-0.297777	0.952563	0.628764	-0.753033	-0.193901	0.775050	0.586745	0.234578
15723	9.308857	-2.047434	2.221729	-0.055173	0.094565	-0.011745	-0.063611	-0.298235	0.952370	0.628367	-0.753354	-0.193943	0.775312	0.586101	0.235323
15724	9.303607	-1.989225	2.215572	-0.065734	0.089415	-0.018303	-0.064346	-0.298623	0.952199	0.627883	-0.753753	-0.193958	0.775644	0.585389	0.236002
15725	9.309484	-2.088661	2.230740	-0.075627	0.079328	-0.027901	-0.065067	-0.298869	0.952073	0.627316	-0.754241	-0.193894	0.776042	0.584634	0.236562
15726	9.308869	-2.252966	2.185446	-0.071357	0.056594	-0.026775	-0.065601	-0.299001	0.951995	0.626782	-0.754698	-0.193843	0.776428	0.583977	0.236917
15727	9.361803	-2.260729	2.181636	-0.054276	0.040676	-0.020594	-0.065976	-0.299075	0.951946	0.626385	-0.755039	-0.193800	0.776717	0.583498	0.237150
15728	9.372733	-2.204093	2.201587	-0.034187	0.027374	-0.014110	-0.066204	-0.299131	0.951913	0.626148	-0.755241	-0.193781	0.776889	0.583209	0.237300
15729	9.325586	-2.145866	2.287489	-0.016274	0.028075	-0.016822	-0.066457	-0.299160	0.951886	0.626048	-0.755348	-0.193684	0.776948	0.583054	0.237487
15730	9.259794	-2.043281	2.347221	-0.008827	0.024710	-0.015390	-0.066672	-0.299191	0.951861	0.626007	-0.755405	-0.193593	0.776962	0.582964	0.237660
15731	9.159504	-1.959615	2.421724	-0.002195	0.018972	-0.018870	-0.066866	-0.299152	0.951860	0.626015	-0.755437	-0.193444	0.776939	0.582943	0.237787
15732	9.208600	-1.957266	2.457207	-0.003051	0.010391	-0.021024	-0.067006	-0.299057	0.951880	0.626015	-0.755478	-0.193285	0.776927	0.582940	0.237835
15733	9.238634	-1.943611	2.502019	-0.000087	0.005259	-0.017274	-0.067084	-0.298951	0.951908	0.626040	-0.755492	-0.193147	0.776900	0.582975	0.237836
15734	9.230695	-1.874621	2.530794	0.023929	0.012477	-0.012464	-0.067186	-0.298932	0.951906	0.626255	-0.755350	-0.193005	0.776718	0.583169	0.237957
15735	9.218377	-1.779980	2.583303	0.040420	0.015453	-0.009441	-0.067294	-0.298945	0.951895	0.626601	-0.755104	-0.192845	0.776430	0.583481	0.238133
15736	9.190228	-1.732225	2.659561	0.047982	0.019558	-0.003858	-0.067397	-0.299033	0.951860	0.627008	-0.754796	-0.192728	0.776092	0.583835	0.238367
15737	9.223745	-1.744095	2.683470	0.036042	0.022860	-0.007474	-0.067551	-0.299104	0.951827	0.627321	-0.754569	-0.192596	0.775825	0.584091	0.238606
15738	9.251269	-1.772407	2.594576	0.020471	0.032977	-0.006629	-0.067775	-0.299249	0.951765	0.627513	-0.754430	-0.192519	0.775651	0.584197	0.238915
15739	9.206041	-1.781323	2.522399	0.011467	0.028040	-0.005108	-0.067955	-0.299369	0.951714	0.627637	-0.754340	-0.192468	0.775535	0.584252	0.239156
15740	9.295606	-1.869858	2.380339	0.016606	0.018510	-0.003889	-0.068050	-0.299450	0.951682	0.627800	-0.754214	-0.192426	0.775394	0.584372	0.239319
15741	9.333417	-1.908069	2.380725	0.029287	0.014788	-0.001576	-0.068105	-0.299519	0.951656	0.628064	-0.754010	-0.192366	0.775175	0.584600	0.239469
15742	9.333403	-1.891026	2.364402	0.033766	0.011755	0.001985	-0.068111	-0.299606	0.951629	0.628365	-0.753766	-0.192338	0.774931	0.584870	0.239601
15743	9.365096	-1.764059	2.282875	0.034441	0.006814	-0.001047	-0.068100	-0.299632	0.951621	0.628669	-0.753530	-0.192271	0.774685	0.585161	0.239685
15744	9.346054	-1.735430	2.275796	0.028451	0.007757	-0.004414	-0.068115	-0.299647	0.951615	0.628924	-0.753336	-0.192195	0.774477	0.585403	0.239769
15745	9.314984	-1.811691	2.305446	0.021703	0.006027	-0.005088	-0.068124	-0.299638	0.951618	0.629127	-0.753186	-0.192120	0.774311	0.585600	0.239821
15746	9.338158	-1.863987	2.291480	0.024604	-0.003609	-0.003047	-0.068042	-0.299597	0.951636	0.629353	-0.753011	-0.192066	0.774135	0.585847	0.239789
15747	9.373164	-1.827833	2.258335	0.025364	-0.004185	-0.000553	-0.067944	-0.299562	0.951654	0.629587	-0.752826	-0.192025	0.773953	0.586102	0.239750
15748	9.402345	-1.847719	2.339129	0.025427	0.000329	0.001167	-0.067866	-0.299576	0.951656	0.629822	-0.752633	-0.192010	0.773769	0.586343	0.239758
15749	9.344468	-1.813319	2.369590	0.021819	0.010257	0.004230	-0.067849	-0.299662	0.951630	0.630032	-0.752454	-0.192023	0.773600	0.586529	0.239850
15750	9.317180	-1.717841	2.390001	0.009073	0.012706	-0.004998	-0.067906	-0.299701	0.951613	0.630136	-0.752376	-0.191988	0.773510	0.586609	0.239943
15751	9.370184	-1.741848	2.402795	-0.005153	0.014469	-0.010920	-0.068017	-0.299698	0.951607	0.630127	-0.752400	-0.191921	0.773507	0.586579	0.240024
15752	9.335980	-1.727608	2.383036	-0.019268	0.023708	-0.012710	-0.068207	-0.299744	0.951578	0.630007	-0.752511	-0.191881	0.773589	0.586413	0.240167
15753	9.344055	-1.778089	2.339365	-0.035678	0.028327	-0.015411	-0.068454	-0.299788	0.951547	0.629758	-0.752728	-0.191845	0.773769	0.586112	0.240321
15754	9.324128	-1.782205	2.369432	-0.037188	0.029487	-0.020405	-0.068738	-0.299810	0.951519	0.629494	-0.752967	-0.191774	0.773959	0.585794	0.240486
15755	9.366480	-1.829643	2.329152	-0.036377	0.031876	-0.015497	-0.069013	-0.299874	0.951479	0.629240	-0.753188	-0.191739	0.774141	0.585477	0.240672
15756	9.331645	-1.831950	2.328720	-0.026557	0.039214	-0.012108	-0.069319	-0.300015	0.951413	0.629064	-0.753340	-0.191722	0.774257	0.585209	0.240949
15757	9.292759	-1.792404	2.333391	-0.024313	0.039330	-0.012920	-0.069636	-0.300141	0.951350	0.628905	-0.753483	-0.191683	0.774358	0.584960	0.241230
15758	9.262547	-1.803802	2.291989	-0.028889	0.031643	-0.015442	-0.069905	-0.300213	0.951307	0.628708	-0.753658	-0.191640	0.774493	0.584698	0.241431
15759	9.346594	-1.734038	2.259522	-0.037082	0.035587	-0.019397	-0.070233	-0.300269	0.951266	0.628445	-0.753895	-0.191569	0.774677	0.584364	0.241651
15760	9.350392	-1.758524	2.239568	-0.034044	0.039786	-0.019790	-0.070593	-0.300355	0.951212	0.628205	-0.754113	-0.191498	0.774839	0.584038	0.241919
15761	9.361188	-1.685131	2.242243	-0.027331	0.036865	-0.017029	-0.070916	-0.300435	0.951162	0.628020	-0.754286	-0.191426	0.774960	0.583773	0.242170
15762	9.399230	-1.706754	2.225647	-0.037771	0.039148	-0.019489	-0.071269	-0.300520	0.951109	0.627751	-0.754525	-0.191367	0.775145	0.583421	0.242425
15763	9.413315	-1.708010	2.259697	-0.048248	0.036770	-0.019875	-0.071609	-0.300578	0.951065	0.627401	-0.754828	-0.191319	0.775397	0.582999	0.242635
15764	9.421529	-1.758430	2.216450	-0.057191	0.036338	-0.016655	-0.071922	-0.300667	0.951014	0.626983	-0.755171	-0.191334	0.775706	0.582508	0.242826
15765	9.386800	-1.761097	2.215389	-0.069148	0.034979	-0.018241	-0.072239	-0.300726	0.950971	0.626472	-0.755591	-0.191352	0.776089	0.581933	0.242979
15766	9.352500	-1.747331	2.195988	-0.083323	0.036782	-0.024212	-0.072603	-0.300760	0.950932	0.625845	-0.756108	-0.191359	0.776561	0.581243	0.243125
15767	9.386144	-1.760368	2.218748	-0.096126	0.025285	-0.027275	-0.072900	-0.300694	0.950930	0.625117	-0.756711	-0.191357	0.777119	0.580493	0.243133
15768	9.350628	-1.812120	2.270694	-0.094520	0.033477	-0.026431	-0.073252	-0.300691	0.950904	0.624401	-0.757299	-0.191370	0.777662	0.579727	0.243226
15769	9.353633	-1.886591	2.303347	-0.084042	0.032608	-0.020858	-0.073566	-0.300715	0.950872	0.623770	-0.757811	-0.191400	0.778138	0.579045	0.243327
15770	9.295265	-1.852841	2.334313	-0.072844	0.031466	-0.020388	-0.073865	-0.300746	0.950839	0.623226	-0.758254	-0.191417	0.778545	0.578449	0.243442
15771	9.290147	-1.843645	2.376773	-0.074366	0.027991	-0.023325	-0.074159	-0.300725	0.950823	0.622668	-0.758716	-0.191401	0.778964	0.577853	0.243517
15772	9.285528	-1.817580	2.400983	-0.070662	0.025874	-0.029860	-0.074473	-0.300651	0.950822	0.622133	-0.759174	-0.191323	0.779361	0.577290	0.243583
15773	9.307781	-1.918969	2.441263	-0.071386	0.026317	-0.028561	-0.074786	-0.300580	0.950820	0.621594	-0.759635	-0.191249	0.779762	0.576721	0.243649
15774	9.254018	-1.909715	2.449149	-0.063101	0.033278	-0.029408	-0.075155	-0.300551	0.950800	0.621118	-0.760047	-0.191158	0.780105	0.576192	0.243800
15775	9.268376	-1.910708	2.481962	-0.057957	0.025464	-0.032692	-0.075487	-0.300443	0.950808	0.620680	-0.760441	-0.191012	0.780422	0.575728	0.243883
15776	9.287333	-1.936958	2.491356	-0.051242	0.023910	-0.026804	-0.075767	-0.300381	0.950805	0.620298	-0.760777	-0.190917	0.780699	0.575317	0.243968
15777	9.282342	-1.926839	2.533830	-0.041534	0.025337	-0.028193	-0.076070	-0.300306	0.950805	0.619991	-0.761063	-0.190774	0.780913	0.574978	0.244081
15778	9.238816	-1.877970	2.578423	-0.034026	0.029421	-0.022545	-0.076367	-0.300308	0.950780	0.619746	-0.761287	-0.190677	0.781078	0.574681	0.244251
15779	9.228534	-1.859407	2.662912	-0.025043	0.032655	-0.019505	-0.076673	-0.300341	0.950745	0.619574	-0.761452	-0.190577	0.781185	0.574445	0.244466
15780	9.257587	-1.830203	2.692264	-0.020533	0.035659	-0.014866	-0.076971	-0.300437	0.950691	0.619440	-0.761574	-0.190520	0.781261	0.574232	0.244722
15781	9.218807	-1.774020	2.679151	-0.030895	0.042654	-0.019412	-0.077355	-0.300528	0.950631	0.619223	-0.761773	-0.190436	0.781396	0.573921	0.245021
15782	9.223711	-1.748674	2.605737	-0.045724	0.049423	-0.022367	-0.077807	-0.300645	0.950557	0.618886	-0.762062	-0.190369	0.781617	0.573475	0.245359
15783	9.252415	-1.776275	2.516840	-0.057750	0.037321	-0.023022	-0.078172	-0.300679	0.950516	0.618456	-0.762425	-0.190317	0.781922	0.572975	0.245557
15784	9.299609	-1.864763	2.471139	-0.059989	0.035656	-0.021548	-0.078511	-0.300723	0.950474	0.618008	-0.762794	-0.190293	0.782242	0.572461	0.245737
15785	9.298948	-1.920934	2.354902	-0.055452	0.041608	-0.014468	-0.078858	-0.300846	0.950407	0.617601	-0.763118	-0.190317	0.782528	0.571964	0.245980
15786	9.298257	-1.920940	2.357626	-0.038367	0.036347	-0.009186	-0.079126	-0.300988	0.950340	0.617332	-0.763325	-0.190358	0.782713	0.571613	0.246208
15787	9.308054	-1.865094	2.379129	-0.016034	0.035396	-0.005037	-0.079365	-0.301147	0.950269	0.617241	-0.763394	-0.190374	0.782761	0.571436	0.246467
15788	9.302142	-1.856638	2.423364	-0.006345	0.036454	0.001208	-0.079570	-0.301369	0.950182	0.617231	-0.763387	-0.190435	0.782748	0.571329	0.246757
15789	9.316530	-1.826048	2.421833	0.001767	0.028141	-0.000368	-0.079724	-0.301522	0.950120	0.617284	-0.763341	-0.190452	0.782691	0.571310	0.246981
15790	9.315514	-1.842678	2.441979	-0.002778	0.020273	0.000828	-0.079804	-0.301649	0.950073	0.617301	-0.763314	-0.190501	0.782669	0.571279	0.247124
15791	9.270783	-1.885180	2.403353	-0.002826	0.015581	0.002876	-0.079839	-0.301755	0.950037	0.617320	-0.763284	-0.190560	0.782650	0.571263	0.247220
15792	9.275054	-1.910729	2.381481	0.000130	0.013528	0.005265	-0.079840	-0.301877	0.949998	0.617364	-0.763228	-0.190643	0.782616	0.571274	0.247304
15793	9.280900	-1.813483	2.406702	0.015725	0.009461	0.005569	-0.079810	-0.301969	0.949971	0.617531	-0.763083	-0.190682	0.782487	0.571418	0.247377
15794	9.334458	-1.748707	2.502549	0.012738	0.008387	0.004545	-0.079775	-0.302056	0.949946	0.617673	-0.762957	-0.190727	0.782379	0.571541	0.247436
15795	9.266178	-1.738252	2.478490	-0.002834	0.014203	-0.000248	-0.079818	-0.302131	0.949919	0.617689	-0.762936	-0.190757	0.782361	0.571529	0.247519
15796	9.269196	-1.813301	2.510266	-0.015467	0.016400	-0.001969	-0.079886	-0.302214	0.949887	0.617605	-0.762991	-0.190810	0.782421	0.571412	0.247601
15797	9.238111	-1.891433	2.537962	-0.023722	0.009626	-0.004980	-0.079923	-0.302226	0.949880	0.617455	-0.763104	-0.190846	0.782536	0.571254	0.247601
15798	9.256948	-1.919237	2.546608	-0.020732	0.010703	-0.003956	-0.079958	-0.302261	0.949866	0.617328	-0.763195	-0.190894	0.782632	0.571115	0.247618
15799	9.237288	-1.908464	2.556908	-0.014807	0.008158	0.000141	-0.079953	-0.302305	0.949852	0.617251	-0.763241	-0.190957	0.782693	0.571030	0.247621
15800	9.267013	-1.863936	2.566449	-0.005129	0.008015	-0.000526	-0.079945	-0.302351	0.949838	0.617249	-0.763232	-0.190998	0.782695	0.571017	0.247643
15801	9.246381	-1.886195	2.612918	-0.008038	0.014581	-0.001161	-0.079998	-0.302422	0.949811	0.617224	-0.763244	-0.191032	0.782710	0.570964	0.247720
15802	9.261669	-1.838926	2.591811	-0.012484	0.016100	-0.004064	-0.080076	-0.302487	0.949784	0.617162	-0.763288	-0.191058	0.782751	0.570871	0.247804
15803	9.285402	-1.875274	2.560345	-0.024318	0.023771	-0.002219	-0.080208	-0.302602	0.949736	0.617009	-0.763395	-0.191123	0.782858	0.570666	0.247938
15804	9.222113	-1.873737	2.495600	-0.038455	0.023874	-0.003779	-0.080345	-0.302713	0.949689	0.616743	-0.763586	-0.191216	0.783053	0.570351	0.248047
15805	9.245385	-1.926792	2.482029	-0.040649	0.025703	-0.011279	-0.080547	-0.302771	0.949654	0.616455	-0.763814	-0.191235	0.783259	0.570015	0.248168
15806	9.269631	-1.946416	2.432712	-0.042147	0.024985	-0.007993	-0.080719	-0.302856	0.949612	0.616157	-0.764039	-0.191297	0.783476	0.569669	0.248280
15807	9.249264	-1.952051	2.461929	-0.022811	0.023132	-0.008630	-0.080885	-0.302919	0.949578	0.616011	-0.764157	-0.191297	0.783574	0.569477	0.248410
15808	9.267802	-1.979583	2.471894	-0.010903	0.024292	-0.003152	-0.081022	-0.303037	0.949528	0.615961	-0.764189	-0.191328	0.783599	0.569371	0.248575
15809	9.306680	-1.984601	2.436932	0.009977	0.027671	-0.005312	-0.081203	-0.303152	0.949476	0.616075	-0.764110	-0.191278	0.783491	0.569416	0.248812
15810	9.287035	-1.956171	2.431890	0.033052	0.029225	0.000029	-0.081359	-0.303323	0.949408	0.616372	-0.763882	-0.191230	0.783241	0.569631	0.249108
15811	9.247421	-1.933207	2.454537	0.048606	0.022022	0.001719	-0.081452	-0.303459	0.949357	0.616793	-0.763563	-0.191151	0.782900	0.569987	0.249365
15812	9.218825	-1.837484	2.477797	0.054536	0.018288	-0.001102	-0.081529	-0.303558	0.949318	0.617258	-0.763215	-0.191038	0.782525	0.570399	0.249598
15813	9.238441	-1.830475	2.452617	0.053738	0.012639	-0.000876	-0.081564	-0.303621	0.949295	0.617716	-0.762873	-0.190922	0.782160	0.570823	0.249775
15814	9.310370	-1.881393	2.474694	0.047009	0.009349	-0.000952	-0.081570	-0.303672	0.949279	0.618122	-0.762568	-0.190829	0.781839	0.571204	0.249909
15815	9.315505	-1.888675	2.435177	0.046227	0.005263	-0.001404	-0.081552	-0.303688	0.949275	0.618521	-0.762270	-0.190726	0.781525	0.571592	0.250002
15816	9.281187	-1.890311	2.433014	0.048527	0.010083	-0.004246	-0.081584	-0.303718	0.949263	0.618935	-0.761966	-0.190598	0.781193	0.571983	0.250145
15817	9.281973	-1.855624	2.399159	0.049300	0.012616	-0.003116	-0.081633	-0.303763	0.949244	0.619356	-0.761655	-0.190471	0.780855	0.572371	0.250314
15818	9.296974	-1.823252	2.396699	0.050046	0.010817	-0.007541	-0.081691	-0.303772	0.949236	0.619779	-0.761352	-0.190308	0.780513	0.572770	0.250467
15819	9.320163	-1.890778	2.401662	0.047813	0.010706	-0.006755	-0.081748	-0.303779	0.949229	0.620185	-0.761061	-0.190149	0.780184	0.573154	0.250614
15820	9.319578	-1.905584	2.421312	0.050001	0.006134	-0.005490	-0.081757	-0.303776	0.949229	0.620610	-0.760751	-0.190006	0.779846	0.573566	0.250723
15821	9.320110	-1.887212	2.404669	0.053679	0.000716	-0.006828	-0.081736	-0.303726	0.949247	0.621061	-0.760425	-0.189832	0.779488	0.574024	0.250786
15822	9.336011	-1.838140	2.382756	0.060253	-0.011444	-0.003708	-0.081597	-0.303635	0.949288	0.621566	-0.760051	-0.189680	0.779100	0.574568	0.250747
15823	9.331516	-1.811129	2.405928	0.073653	-0.012646	-0.000152	-0.081430	-0.303559	0.949327	0.622179	-0.759589	-0.189520	0.778629	0.575218	0.250721
15824	9.321619	-1.775430	2.470410	0.075201	-0.007572	0.002097	-0.081285	-0.303535	0.949347	0.622804	-0.759110	-0.189385	0.778144	0.575863	0.250747
15825	9.296057	-1.786940	2.557383	0.075885	-0.014239	0.003540	-0.081083	-0.303477	0.949383	0.623436	-0.758624	-0.189254	0.777659	0.576534	0.250710
15826	9.276852	-1.774219	2.567088	0.070703	-0.012299	0.001923	-0.080903	-0.303424	0.949415	0.624025	-0.758171	-0.189129	0.777205	0.577158	0.250682
15827	9.258165	-1.745067	2.558624	0.069182	-0.015956	0.002784	-0.080692	-0.303350	0.949456	0.624604	-0.757724	-0.189008	0.776761	0.577783	0.250616
15828	9.248934	-1.692992	2.604227	0.053549	-0.014869	0.000017	-0.080504	-0.303267	0.949499	0.625059	-0.757374	-0.188907	0.776415	0.578285	0.250531
15829	9.268854	-1.702882	2.593884	0.032657	-0.016558	-0.002287	-0.080321	-0.303151	0.949551	0.625349	-0.757154	-0.188830	0.776200	0.578634	0.250390
15830	9.197155	-1.649614	2.572297	0.012575	-0.013820	-0.011763	-0.080214	-0.302986	0.949613	0.625476	-0.757077	-0.188720	0.776110	0.578822	0.250238
15831	9.240113	-1.745227	2.582889	-0.011296	-0.015041	-0.015772	-0.080127	-0.302776	0.949687	0.625414	-0.757151	-0.188625	0.776168	0.578834	0.250029
15832	9.316486	-1.870555	2.632834	-0.010572	-0.018421	-0.019499	-0.080033	-0.302525	0.949775	0.625355	-0.757231	-0.188500	0.776226	0.578860	0.249789
15833	9.297874	-1.931856	2.540568	-0.005310	-0.012863	-0.013732	-0.079951	-0.302344	0.949840	0.625341	-0.757266	-0.188408	0.776245	0.578910	0.249612
15834	9.259923	-1.892124	2.540507	0.011053	-0.016088	-0.007785	-0.079802	-0.302195	0.949900	0.625459	-0.757185	-0.188340	0.776166	0.579093	0.249435
15835	9.269962	-1.867888	2.593542	0.019239	-0.018310	-0.008273	-0.079644	-0.302024	0.949968	0.625640	-0.757061	-0.188240	0.776036	0.579345	0.249253
15836	9.216380	-1.875033	2.616532	0.026755	-0.012462	-0.007104	-0.079518	-0.301901	0.950017	0.625880	-0.756887	-0.188140	0.775855	0.579636	0.249140
15837	9.255256	-1.838453	2.714929	0.035694	-0.013713	-0.005782	-0.079380	-0.301775	0.950069	0.626191	-0.756659	-0.188022	0.775618	0.579999	0.249032
15838	9.227935	-1.725792	2.715906	0.032027	-0.008124	-0.008262	-0.079296	-0.301669	0.950110	0.626471	-0.756458	-0.187897	0.775401	0.580317	0.248971
15839	9.233914	-1.716734	2.656788	0.022379	-0.003321	-0.009664	-0.079263	-0.301574	0.950142	0.626676	-0.756319	-0.187776	0.775239	0.580547	0.248937
15840	9.241642	-1.641988	2.525399	0.010444	-0.004555	-0.015120	-0.079249	-0.301436	0.950187	0.626783	-0.756264	-0.187640	0.775153	0.580691	0.248868
15841	9.309908	-1.650653	2.550575	0.000014	-0.002456	-0.013838	-0.079250	-0.301315	0.950226	0.626810	-0.756267	-0.187534	0.775131	0.580749	0.248801
15842	9.334490	-1.686055	2.517633	-0.006728	-0.004379	-0.010767	-0.079210	-0.301211	0.950262	0.626788	-0.756298	-0.187483	0.775153	0.580762	0.248702
15843	9.309247	-1.772010	2.503969	-0.003698	0.001231	-0.008017	-0.079203	-0.301155	0.950280	0.626792	-0.756305	-0.187442	0.775151	0.580782	0.248663
15844	9.328857	-1.782658	2.494227	-0.006718	-0.001589	-0.004539	-0.079146	-0.301115	0.950298	0.626774	-0.756318	-0.187449	0.775171	0.580787	0.248590
15845	9.373219	-1.813735	2.433450	-0.006033	-0.006868	0.000036	-0.079025	-0.301073	0.950321	0.626766	-0.756315	-0.187490	0.775190	0.580813	0.248470
15846	9.303683	-1.869562	2.479659	0.004407	-0.006176	0.004981	-0.078873	-0.301078	0.950332	0.626842	-0.756234	-0.187560	0.775144	0.580915	0.248375
15847	9.279731	-1.907221	2.411063	0.004316	-0.016775	0.002207	-0.078662	-0.300995	0.950376	0.626917	-0.756163	-0.187596	0.775105	0.581050	0.248180
15848	9.266773	-1.872217	2.341730	0.015413	-0.027106	0.003074	-0.078359	-0.300864	0.950442	0.627077	-0.756024	-0.187621	0.775006	0.581299	0.247906
15849	9.335347	-1.882040	2.364904	0.024366	-0.028183	0.000587	-0.078070	-0.300702	0.950517	0.627305	-0.755843	-0.187592	0.774851	0.581619	0.247640
15850	9.331261	-1.856091	2.385570	0.028822	-0.031062	0.000379	-0.077754	-0.300527	0.950599	0.627566	-0.755634	-0.187558	0.774671	0.581980	0.247354
15851	9.336302	-1.897171	2.378620	0.033346	-0.026298	0.000518	-0.077479	-0.300376	0.950669	0.627864	-0.755399	-0.187507	0.774457	0.582363	0.247123
15852	9.303113	-1.883318	2.355039	0.045993	-0.030159	0.006731	-0.077130	-0.300254	0.950736	0.628264	-0.755071	-0.187491	0.774168	0.582851	0.246877
15853	9.298943	-1.857347	2.376098	0.051981	-0.029363	0.005643	-0.076800	-0.300123	0.950804	0.628709	-0.754712	-0.187443	0.773839	0.583383	0.246652
15854	9.290512	-1.789215	2.401893	0.061658	-0.033978	0.003227	-0.076444	-0.299952	0.950887	0.629226	-0.754302	-0.187356	0.773454	0.584001	0.246399
15855	9.287266	-1.730077	2.386501	0.057937	-0.033235	0.006625	-0.076077	-0.299805	0.950962	0.629719	-0.753904	-0.187303	0.773089	0.584590	0.246148
15856	9.282779	-1.720330	2.425544	0.051263	-0.028907	0.006934	-0.075737	-0.299691	0.951025	0.630158	-0.753544	-0.187276	0.772764	0.585113	0.245924
15857	9.302846	-1.730765	2.414075	0.049034	-0.028859	0.003923	-0.075421	-0.299550	0.951095	0.630578	-0.753206	-0.187220	0.772452	0.585620	0.245697
15858	9.331981	-1.808278	2.375104	0.046073	-0.026827	0.001523	-0.075131	-0.299407	0.951163	0.630973	-0.752892	-0.187155	0.772158	0.586097	0.245483
15859	9.342362	-1.841933	2.309665	0.047578	-0.026272	0.002024	-0.074848	-0.299265	0.951230	0.631380	-0.752568	-0.187084	0.771853	0.586584	0.245278
15860	9.329207	-1.806327	2.240767	0.053607	-0.020956	0.002649	-0.074597	-0.299164	0.951281	0.631833	-0.752206	-0.187011	0.771506	0.587101	0.245134
15861	9.344448	-1.790930	2.252765	0.052092	-0.024456	-0.000274	-0.074342	-0.299016	0.951348	0.632273	-0.751862	-0.186908	0.771171	0.587616	0.244955
15862	9.335262	-1.813005	2.197641	0.056640	-0.017973	-0.004658	-0.074160	-0.298878	0.951405	0.632744	-0.751503	-0.186759	0.770802	0.588146	0.244844
15863	9.370684	-1.775606	2.163951	0.048408	-0.020280	-0.005873	-0.073973	-0.298711	0.951472	0.633150	-0.751197	-0.186611	0.770486	0.588621	0.244697
15864	9.395771	-1.735941	2.229994	0.041675	-0.021888	-0.010389	-0.073797	-0.298507	0.951550	0.633501	-0.750943	-0.186444	0.770214	0.589049	0.244522
15865	9.367176	-1.746715	2.184379	0.050662	-0.020297	-0.002876	-0.073591	-0.298362	0.951612	0.633927	-0.750614	-0.186319	0.769884	0.589541	0.244378
15866	9.382485	-1.730826	2.196369	0.049158	-0.022244	-0.006490	-0.073388	-0.298184	0.951683	0.634338	-0.750303	-0.186171	0.769564	0.590026	0.244213
15867	9.373799	-1.677802	2.240509	0.037949	-0.022393	-0.013900	-0.073236	-0.297944	0.951770	0.634657	-0.750083	-0.185973	0.769316	0.590428	0.244025
15868	9.375190	-1.643248	2.202514	0.020015	-0.021506	-0.015793	-0.073097	-0.297701	0.951857	0.634837	-0.749971	-0.185808	0.769180	0.590692	0.243813
15869	9.374635	-1.706166	2.273868	0.008848	-0.015587	-0.022181	-0.073049	-0.297439	0.951942	0.634928	-0.749946	-0.185601	0.769110	0.590856	0.243635
15870	9.354946	-1.741508	2.336987	-0.000834	-0.010826	-0.023565	-0.073043	-0.297200	0.952017	0.634942	-0.749981	-0.185413	0.769099	0.590932	0.243485
15871	9.344995	-1.811532	2.336447	0.002133	-0.014092	-0.028084	-0.073044	-0.296902	0.952110	0.634976	-0.750013	-0.185167	0.769071	0.591042	0.243310
15872	9.315400	-1.886429	2.363696	-0.000097	-0.012656	-0.027979	-0.073051	-0.296620	0.952198	0.634992	-0.750056	-0.184935	0.769057	0.591129	0.243144
15873	9.311217	-1.874668	2.403450	0.003636	-0.013687	-0.023779	-0.073028	-0.296356	0.952281	0.635040	-0.750067	-0.184726	0.769019	0.591247	0.242974
15874	9.331846	-1.808631	2.492065	0.004383	-0.014112	-0.025084	-0.073006	-0.296087	0.952367	0.635093	-0.750075	-0.184511	0.768978	0.591371	0.242803
15875	9.342256	-1.782564	2.545418	0.004470	-0.001959	-0.023051	-0.073069	-0.295899	0.952421	0.635148	-0.750078	-0.184307	0.768926	0.591461	0.242747
15876	9.260080	-1.710167	2.607065	0.002290	0.007108	-0.022626	-0.073194	-0.295773	0.952450	0.635187	-0.750092	-0.184120	0.768882	0.591507	0.242774
15877	9.231085	-1.720224	2.563567	-0.005150	0.012288	-0.032424	-0.073426	-0.295599	0.952486	0.635161	-0.750179	-0.183850	0.768881	0.591483	0.242836
15878	9.278910	-1.781106	2.672079	-0.009646	0.010484	-0.030121	-0.073625	-0.295437	0.952521	0.635103	-0.750285	-0.183621	0.768911	0.591430	0.242873
15879	9.264017	-1.809288	2.678491	-0.015550	0.021989	-0.030789	-0.073921	-0.295333	0.952530	0.634999	-0.750429	-0.183392	0.768968	0.591299	0.243009
15880	9.263887	-1.807112	2.680410	-0.010299	0.024474	-0.023675	-0.074187	-0.295302	0.952519	0.634940	-0.750520	-0.183226	0.768991	0.591200	0.243178
15881	9.190790	-1.769854	2.680165	-0.005808	0.024730	-0.025282	-0.074469	-0.295256	0.952512	0.634915	-0.750589	-0.183026	0.768985	0.591134	0.243358
15882	9.200974	-1.695345	2.681936	-0.008022	0.029126	-0.022766	-0.074765	-0.295259	0.952487	0.634874	-0.750664	-0.182862	0.768990	0.591038	0.243575
15883	9.205129	-1.735053	2.679952	-0.011000	0.029737	-0.028276	-0.075105	-0.295220	0.952473	0.634807	-0.750773	-0.182646	0.769012	0.590919	0.243794
15884	9.229058	-1.769522	2.650236	-0.016210	0.033029	-0.026765	-0.075456	-0.295216	0.952446	0.634700	-0.750908	-0.182465	0.769066	0.590750	0.244034
15885	9.287657	-1.768498	2.587725	-0.010242	0.031973	-0.019555	-0.075759	-0.295256	0.952410	0.634645	-0.750987	-0.182330	0.769082	0.590629	0.244276
15886	9.252699	-1.786475	2.605304	0.005450	0.031001	-0.016852	-0.076031	-0.295315	0.952370	0.634712	-0.750965	-0.182191	0.769000	0.590628	0.244536
15887	9.285971	-1.797800	2.630355	0.018185	0.036407	-0.011025	-0.076314	-0.295444	0.952307	0.634880	-0.750852	-0.182068	0.768833	0.590706	0.244872
15888	9.266000	-1.768881	2.625441	0.025654	0.034657	-0.010227	-0.076573	-0.295574	0.952246	0.635107	-0.750690	-0.181942	0.768619	0.590846	0.245204
15889	9.285612	-1.729665	2.565009	0.029404	0.036748	-0.007416	-0.076836	-0.295734	0.952175	0.635365	-0.750500	-0.181825	0.768380	0.591008	0.245564
15890	9.305248	-1.690460	2.504638	0.032392	0.034898	-0.008823	-0.077087	-0.295876	0.952111	0.635645	-0.750295	-0.181696	0.768123	0.591198	0.245910
15891	9.324990	-1.651227	2.444041	0.036106	0.030910	-0.007027	-0.077302	-0.296004	0.952054	0.635954	-0.750064	-0.181567	0.767846	0.591427	0.246226
15892	9.314968	-1.673538	2.393145	0.024866	0.025901	-0.008551	-0.077482	-0.296095	0.952011	0.636176	-0.749902	-0.181458	0.767644	0.591586	0.246473
15893	9.338587	-1.725181	2.381956	0.021873	0.026201	-0.006451	-0.077658	-0.296199	0.951964	0.636377	-0.749753	-0.181369	0.767459	0.591723	0.246719
15894	9.342818	-1.765951	2.379652	0.013565	0.013094	-0.006580	-0.077727	-0.296230	0.951949	0.636514	-0.749652	-0.181307	0.767339	0.591836	0.246823
15895	9.372964	-1.778734	2.271150	0.013506	0.005300	-0.003084	-0.077720	-0.296236	0.951947	0.636655	-0.749541	-0.181271	0.767223	0.591973	0.246855
15896	9.378155	-1.787523	2.230784	0.015718	0.000753	-0.001784	-0.077664	-0.296229	0.951954	0.636812	-0.749413	-0.181249	0.767098	0.592139	0.246845
15897	9.393799	-1.723865	2.189297	0.020165	-0.005222	-0.000584	-0.077561	-0.296192	0.951974	0.637004	-0.749256	-0.181220	0.766948	0.592356	0.246788
15898	9.354247	-1.733546	2.244666	0.026136	-0.007524	-0.000279	-0.077432	-0.296147	0.951998	0.637242	-0.749062	-0.181187	0.766764	0.592624	0.246719
15899	9.359316	-1.667355	2.302543	0.023106	-0.013309	0.000813	-0.077257	-0.296072	0.952036	0.637458	-0.748883	-0.181164	0.766602	0.592887	0.246590
15900	9.359648	-1.666895	2.301523	0.023833	-0.016851	0.000910	-0.077049	-0.295981	0.952081	0.637679	-0.748699	-0.181148	0.766439	0.593165	0.246427
15901	9.335656	-1.629664	2.332326	0.020078	-0.020500	-0.001201	-0.076832	-0.295847	0.952140	0.637870	-0.748545	-0.181114	0.766302	0.593426	0.246225
15902	9.336853	-1.596456	2.293961	0.009603	-0.024240	-0.008529	-0.076628	-0.295642	0.952221	0.637975	-0.748473	-0.181043	0.766235	0.593620	0.245966
15903	9.331386	-1.634992	2.387703	-0.008320	-0.017485	-0.005630	-0.076462	-0.295493	0.952280	0.637945	-0.748500	-0.181036	0.766276	0.593660	0.245740
15904	9.321981	-1.690825	2.368001	-0.013596	-0.026216	-0.009949	-0.076252	-0.295265	0.952368	0.637871	-0.748569	-0.181009	0.766359	0.593686	0.245421
15905	9.332264	-1.757789	2.338075	-0.014375	-0.030461	-0.006547	-0.075993	-0.295032	0.952461	0.637794	-0.748636	-0.181008	0.766449	0.593718	0.245060
15906	9.395944	-1.757548	2.401529	-0.000140	-0.025883	-0.003332	-0.075743	-0.294855	0.952535	0.637828	-0.748606	-0.181011	0.766446	0.593843	0.244768
15907	9.317874	-1.745433	2.474182	0.015573	-0.022458	0.004891	-0.075472	-0.294755	0.952588	0.637989	-0.748460	-0.181046	0.766338	0.594076	0.244538
15908	9.278684	-1.755783	2.528270	0.017095	-0.017377	0.007100	-0.075221	-0.294707	0.952623	0.638163	-0.748297	-0.181106	0.766218	0.594305	0.244358
15909	9.254365	-1.735419	2.577468	0.012621	-0.015928	0.004195	-0.075005	-0.294640	0.952660	0.638299	-0.748172	-0.181141	0.766126	0.594496	0.244185
15910	9.269245	-1.720997	2.589718	0.008939	-0.005860	0.003401	-0.074865	-0.294633	0.952673	0.638408	-0.748069	-0.181186	0.766049	0.594630	0.244100
15911	9.304025	-1.685121	2.556505	0.002995	-0.000296	-0.002105	-0.074809	-0.294613	0.952684	0.638468	-0.748018	-0.181185	0.766004	0.594704	0.244059
15912	9.250322	-1.677088	2.562797	0.000779	0.004246	-0.003404	-0.074790	-0.294614	0.952685	0.638509	-0.747983	-0.181185	0.765972	0.594747	0.244056
15913	9.259057	-1.776820	2.572990	-0.002933	0.011049	0.001011	-0.074802	-0.294685	0.952662	0.638524	-0.747959	-0.181228	0.765958	0.594742	0.244112
15914	9.263351	-1.818768	2.569574	0.000803	0.010178	0.001411	-0.074798	-0.294758	0.952640	0.638569	-0.747910	-0.181274	0.765921	0.594768	0.244165
15915	9.292802	-1.848837	2.479271	0.012021	0.010529	0.005018	-0.074779	-0.294856	0.952611	0.638704	-0.747783	-0.181319	0.765810	0.594878	0.244244
15916	9.258306	-1.852323	2.476868	0.033676	0.004169	0.009421	-0.074677	-0.294953	0.952589	0.639007	-0.747515	-0.181361	0.765567	0.595168	0.244299
15917	9.302498	-1.776634	2.480677	0.036678	0.006694	0.013530	-0.074575	-0.295091	0.952554	0.639336	-0.747217	-0.181427	0.765302	0.595473	0.244386
15918	9.277348	-1.756337	2.532783	0.032250	0.015782	0.010926	-0.074553	-0.295269	0.952501	0.639629	-0.746953	-0.181486	0.765060	0.595717	0.244550
15919	9.257569	-1.729118	2.525976	0.033740	0.013374	0.009020	-0.074531	-0.295413	0.952458	0.639931	-0.746687	-0.181516	0.764810	0.595979	0.244695
15920	9.301369	-1.669136	2.548782	0.042736	0.013896	0.005811	-0.074527	-0.295541	0.952419	0.640299	-0.746374	-0.181500	0.764501	0.596306	0.244860
15921	9.305087	-1.726658	2.565125	0.047264	0.020099	0.009013	-0.074557	-0.295726	0.952359	0.640705	-0.746027	-0.181497	0.764159	0.596649	0.245094
15922	9.273824	-1.819966	2.615211	0.064493	0.022695	0.014621	-0.074563	-0.295972	0.952282	0.641246	-0.745558	-0.181512	0.763704	0.597113	0.245382
15923	9.243249	-1.865103	2.610851	0.081698	0.022046	0.025440	-0.074502	-0.296291	0.952188	0.641927	-0.744956	-0.181580	0.763138	0.597706	0.245698
15924	9.228484	-1.831557	2.546317	0.101887	0.016583	0.032454	-0.074347	-0.296633	0.952093	0.642765	-0.744209	-0.181673	0.762447	0.598466	0.245995
15925	9.257519	-1.770644	2.538770	0.115333	0.007913	0.035664	-0.074112	-0.296943	0.952015	0.643708	-0.743374	-0.181755	0.761674	0.599349	0.246238
15926	9.302376	-1.646905	2.488584	0.107872	0.006709	0.032445	-0.073881	-0.297226	0.951944	0.644591	-0.742590	-0.181833	0.760950	0.600181	0.246452
15927	9.292682	-1.563541	2.499036	0.094424	0.007791	0.028923	-0.073687	-0.297485	0.951879	0.645367	-0.741898	-0.181902	0.760310	0.600908	0.246656
15928	9.315439	-1.649221	2.524157	0.080902	0.001088	0.028939	-0.073436	-0.297708	0.951828	0.646041	-0.741285	-0.182011	0.759762	0.601554	0.246768
15929	9.343707	-1.728955	2.489821	0.062209	0.005436	0.026915	-0.073237	-0.297937	0.951772	0.646570	-0.740792	-0.182141	0.759331	0.602048	0.246891
15930	9.294350	-1.824175	2.376244	0.058441	0.003077	0.031730	-0.072982	-0.298192	0.951712	0.647074	-0.740304	-0.182332	0.758926	0.602521	0.246981
15931	9.318428	-1.846680	2.327265	0.071165	-0.001930	0.031042	-0.072701	-0.298407	0.951666	0.647675	-0.739743	-0.182478	0.758441	0.603104	0.247051
15932	9.352926	-1.812421	2.294726	0.076376	-0.009737	0.027865	-0.072373	-0.298556	0.951644	0.648311	-0.739158	-0.182589	0.757928	0.603747	0.247052
15933	9.367612	-1.706267	2.388326	0.076447	-0.003507	0.025020	-0.072118	-0.298716	0.951613	0.648945	-0.738582	-0.182664	0.757409	0.604371	0.247116
15934	9.400694	-1.735568	2.429782	0.074963	-0.002621	0.027614	-0.071846	-0.298905	0.951574	0.649570	-0.738005	-0.182776	0.756900	0.604982	0.247183
15935	9.395809	-1.694674	2.434730	0.074234	-0.000737	0.032004	-0.071566	-0.299135	0.951523	0.650194	-0.737419	-0.182924	0.756391	0.605583	0.247269
15936	9.385683	-1.720557	2.382364	0.069768	0.002132	0.032183	-0.071299	-0.299385	0.951465	0.650781	-0.736859	-0.183091	0.755910	0.606141	0.247372
15937	9.367493	-1.631025	2.300615	0.063781	0.002885	0.032578	-0.071043	-0.299640	0.951404	0.651323	-0.736336	-0.183270	0.755468	0.606651	0.247474
15938	9.377764	-1.559906	2.299674	0.047250	-0.001624	0.022604	-0.070811	-0.299797	0.951371	0.651733	-0.735941	-0.183402	0.755136	0.607053	0.247500
15939	9.392173	-1.546217	2.313187	0.025534	0.003242	0.015076	-0.070671	-0.299924	0.951342	0.651972	-0.735702	-0.183508	0.754942	0.607280	0.247535
15940	9.350909	-1.603936	2.425332	0.003072	0.009980	0.011943	-0.070595	-0.300073	0.951300	0.652041	-0.735606	-0.183648	0.754890	0.607322	0.247590
15941	9.329372	-1.734224	2.411318	-0.010497	0.004691	0.015099	-0.070466	-0.300209	0.951267	0.652011	-0.735584	-0.183844	0.754928	0.607282	0.247573
15942	9.333828	-1.762054	2.388871	-0.018837	-0.003888	0.016772	-0.070254	-0.300309	0.951251	0.651917	-0.735607	-0.184084	0.755029	0.607204	0.247456
15943	9.323212	-1.820500	2.371719	-0.008316	-0.002942	0.017857	-0.070049	-0.300419	0.951232	0.651904	-0.735564	-0.184300	0.755059	0.607202	0.247370
15944	9.336838	-1.839604	2.421350	-0.002291	-0.000693	0.019837	-0.069841	-0.300561	0.951202	0.651938	-0.735477	-0.184529	0.755049	0.607236	0.247314
15945	9.313494	-1.756171	2.397575	0.002267	0.004210	0.016092	-0.069702	-0.300702	0.951168	0.652003	-0.735375	-0.184702	0.755005	0.607291	0.247315
15946	9.278065	-1.792559	2.431693	0.007551	0.007010	0.015566	-0.069580	-0.300859	0.951127	0.652108	-0.735241	-0.184866	0.754926	0.607375	0.247351
15947	9.336346	-1.812344	2.385943	0.008303	0.007898	0.021167	-0.069435	-0.301059	0.951074	0.652223	-0.735087	-0.185072	0.754840	0.607462	0.247399
15948	9.311097	-1.792554	2.437304	0.014379	0.014801	0.021010	-0.069337	-0.301304	0.951004	0.652383	-0.734895	-0.185270	0.754711	0.607573	0.247521
15949	9.302654	-1.678373	2.409333	0.003899	0.017077	0.014692	-0.069303	-0.301512	0.950940	0.652461	-0.734787	-0.185427	0.754647	0.607601	0.247648
15950	9.356589	-1.655697	2.368087	-0.009587	0.018342	0.003576	-0.069345	-0.301651	0.950893	0.652428	-0.734793	-0.185518	0.754671	0.607525	0.247760
15951	9.300453	-1.788648	2.351653	-0.017041	0.024509	0.008240	-0.069410	-0.301856	0.950823	0.652342	-0.734832	-0.185665	0.754740	0.607375	0.247918
15952	9.304659	-1.815454	2.330855	-0.011150	0.011689	0.002122	-0.069411	-0.301943	0.950796	0.652296	-0.734853	-0.185747	0.754779	0.607307	0.247964
15953	9.362733	-1.849964	2.303845	-0.006622	0.013486	-0.000196	-0.069448	-0.302020	0.950769	0.652283	-0.734854	-0.185787	0.754787	0.607268	0.248036
15954	9.385742	-1.919393	2.310328	-0.005149	0.010944	0.001724	-0.069446	-0.302100	0.950743	0.652282	-0.734838	-0.185850	0.754788	0.607247	0.248086
15955	9.361714	-1.866460	2.324215	0.003064	0.007104	0.005756	-0.069395	-0.302182	0.950721	0.652348	-0.734761	-0.185924	0.754736	0.607299	0.248116
15956	9.274563	-1.830206	2.289690	-0.000035	-0.001778	0.008325	-0.069254	-0.302233	0.950715	0.652391	-0.734695	-0.186037	0.754712	0.607354	0.248054
15957	9.284592	-1.790013	2.324418	0.001429	-0.007086	0.000252	-0.069131	-0.302188	0.950738	0.652441	-0.734644	-0.186062	0.754680	0.607438	0.247947
15958	9.308680	-1.766475	2.408671	-0.004588	-0.009217	-0.005539	-0.069025	-0.302092	0.950777	0.652440	-0.734647	-0.186055	0.754691	0.607482	0.247805
15959	9.342181	-1.794527	2.448936	-0.003694	0.004198	-0.009443	-0.069052	-0.302044	0.950790	0.652442	-0.734659	-0.186000	0.754686	0.607492	0.247795
15960	9.323663	-1.750708	2.421468	-0.005226	0.001972	-0.005420	-0.069029	-0.302016	0.950800	0.652436	-0.734666	-0.185995	0.754694	0.607497	0.247759
15961	9.289916	-1.737506	2.399723	-0.015659	0.008795	-0.010074	-0.069094	-0.301992	0.950803	0.652347	-0.734752	-0.185964	0.754764	0.607405	0.247771
15962	9.309835	-1.732562	2.372145	-0.026210	0.004754	-0.009743	-0.069121	-0.301949	0.950815	0.652180	-0.734899	-0.185970	0.754907	0.607248	0.247722
15963	9.328917	-1.759377	2.381448	-0.029909	0.008843	-0.015380	-0.069221	-0.301886	0.950828	0.651980	-0.735088	-0.185924	0.755070	0.607051	0.247707
15964	9.333721	-1.784722	2.359432	-0.030673	0.007732	-0.013371	-0.069293	-0.301835	0.950839	0.651776	-0.735273	-0.185907	0.755239	0.606852	0.247678
15965	9.319200	-1.798718	2.346166	-0.033024	-0.003024	-0.015202	-0.069302	-0.301701	0.950880	0.651555	-0.735478	-0.185871	0.755430	0.606669	0.247545
15966	9.339495	-1.793502	2.317297	-0.032306	-0.006564	-0.015080	-0.069277	-0.301551	0.950930	0.651337	-0.735679	-0.185841	0.755619	0.606501	0.247377
15967	9.320455	-1.781371	2.325489	-0.043522	-0.003836	-0.020107	-0.069312	-0.301376	0.950983	0.651031	-0.735964	-0.185784	0.755880	0.606242	0.247216
15968	9.315696	-1.770512	2.365202	-0.053979	-0.000106	-0.023339	-0.069390	-0.301204	0.951032	0.650643	-0.736321	-0.185729	0.756206	0.605895	0.247070
15969	9.295446	-1.805852	2.428888	-0.055472	-0.001971	-0.030743	-0.069508	-0.300961	0.951100	0.650239	-0.736710	-0.185600	0.756543	0.605542	0.246904
15970	9.299558	-1.878153	2.460807	-0.055447	-0.000408	-0.031458	-0.069636	-0.300728	0.951164	0.649835	-0.737099	-0.185472	0.756879	0.605184	0.246752
15971	9.317881	-1.951973	2.524452	-0.050887	0.005821	-0.028289	-0.069796	-0.300551	0.951208	0.649468	-0.737452	-0.185355	0.757179	0.604842	0.246670
15972	9.259371	-1.932622	2.570745	-0.044115	0.007633	-0.027598	-0.069960	-0.300395	0.951246	0.649151	-0.737760	-0.185235	0.757435	0.604543	0.246615
15973	9.206022	-1.923249	2.576347	-0.044874	0.006521	-0.025593	-0.070108	-0.300242	0.951283	0.648831	-0.738069	-0.185130	0.757696	0.604243	0.246551
15974	9.182068	-1.884558	2.607983	-0.040334	0.008458	-0.031713	-0.070305	-0.300060	0.951326	0.648540	-0.738366	-0.184962	0.757927	0.603969	0.246511
15975	9.221788	-1.813132	2.668942	-0.044887	0.000694	-0.034188	-0.070464	-0.299808	0.951394	0.648213	-0.738701	-0.184774	0.758192	0.603686	0.246391
15976	9.202473	-1.815806	2.696134	-0.037369	0.002073	-0.034794	-0.070632	-0.299565	0.951458	0.647942	-0.738989	-0.184569	0.758408	0.603453	0.246297
15977	9.198124	-1.787939	2.718233	-0.032853	0.005184	-0.030198	-0.070799	-0.299370	0.951507	0.647710	-0.739237	-0.184390	0.758590	0.603246	0.246243
15978	9.187636	-1.782568	2.818214	-0.023114	0.005002	-0.027086	-0.070940	-0.299201	0.951549	0.647553	-0.739417	-0.184223	0.758712	0.603110	0.246203
15979	9.187900	-1.780707	2.818529	-0.015586	0.009358	-0.025295	-0.071107	-0.299068	0.951579	0.647454	-0.739547	-0.184048	0.758780	0.603017	0.246220
15980	9.193279	-1.788752	2.778374	-0.019322	0.011654	-0.022603	-0.071269	-0.298973	0.951597	0.647329	-0.739690	-0.183915	0.758872	0.602889	0.246251
15981	9.203502	-1.823027	2.715645	-0.019378	0.006857	-0.016675	-0.071363	-0.298888	0.951616	0.647207	-0.739817	-0.183831	0.758967	0.602774	0.246238
15982	9.229495	-1.794532	2.610917	-0.002843	0.011724	-0.018079	-0.071496	-0.298826	0.951626	0.647210	-0.739847	-0.183699	0.758952	0.602767	0.246299
15983	9.249924	-1.771997	2.565370	-0.007391	0.003955	-0.020562	-0.071592	-0.298696	0.951659	0.647177	-0.739914	-0.183550	0.758971	0.602751	0.246281
15984	9.294603	-1.802614	2.505578	-0.015692	-0.003080	-0.019645	-0.071623	-0.298533	0.951708	0.647081	-0.740026	-0.183435	0.759050	0.602694	0.246178
15985	9.314093	-1.828630	2.514247	-0.008184	0.001144	-0.014041	-0.071656	-0.298434	0.951736	0.647046	-0.740078	-0.183349	0.759077	0.602679	0.246132
15986	9.310623	-1.845529	2.401018	0.002255	-0.004139	-0.010104	-0.071617	-0.298336	0.951770	0.647093	-0.740053	-0.183281	0.759040	0.602758	0.246051
15987	9.271862	-1.822119	2.419377	0.011207	-0.008425	-0.007375	-0.071534	-0.298229	0.951810	0.647209	-0.739969	-0.183211	0.758949	0.602914	0.245949
15988	9.325320	-1.860880	2.449441	0.023889	-0.017978	-0.009734	-0.071388	-0.298049	0.951877	0.647421	-0.739813	-0.183094	0.758782	0.603194	0.245777
15989	9.370185	-1.799552	2.468998	0.030648	-0.016165	-0.009035	-0.071258	-0.297883	0.951939	0.647683	-0.739617	-0.182960	0.758571	0.603517	0.245637
15990	9.317083	-1.790075	2.473693	0.024645	-0.018404	-0.011036	-0.071117	-0.297691	0.952010	0.647899	-0.739460	-0.182828	0.758399	0.603804	0.245462
15991	9.279126	-1.750102	2.472326	0.018574	-0.028423	-0.009500	-0.070896	-0.297448	0.952102	0.648071	-0.739336	-0.182720	0.758273	0.604076	0.245183
15992	9.255324	-1.819688	2.439854	0.006590	-0.029796	-0.014913	-0.070694	-0.297159	0.952208	0.648148	-0.739299	-0.182596	0.758226	0.604263	0.244866
15993	9.309817	-1.842079	2.449258	0.006516	-0.040548	-0.013771	-0.070409	-0.296810	0.952337	0.648225	-0.739261	-0.182476	0.758187	0.604481	0.244451
15994	9.272597	-1.786016	2.427947	0.013302	-0.035620	-0.014493	-0.070160	-0.296489	0.952456	0.648353	-0.739183	-0.182340	0.758100	0.604734	0.244090
15995	9.283170	-1.759964	2.478705	0.008075	-0.033758	-0.016105	-0.069941	-0.296164	0.952573	0.648442	-0.739140	-0.182195	0.758045	0.604945	0.243742
15996	9.283377	-1.806400	2.530900	0.002834	-0.033453	-0.017008	-0.069725	-0.295837	0.952690	0.648488	-0.739133	-0.182060	0.758025	0.605114	0.243383
15997	9.265226	-1.777512	2.519162	-0.000119	-0.026930	-0.017735	-0.069570	-0.295542	0.952793	0.648513	-0.739146	-0.181919	0.758018	0.605242	0.243085
15998	9.251654	-1.790206	2.503576	0.006617	-0.031067	-0.021833	-0.069403	-0.295193	0.952914	0.648585	-0.739130	-0.181730	0.757972	0.605432	0.242755
15999	9.306129	-1.811970	2.513602	0.014139	-0.025278	-0.016951	-0.069254	-0.294914	0.953011	0.648718	-0.739054	-0.181562	0.757871	0.605661	0.242499
16000	9.302373	-1.768052	2.515979	0.025435	-0.017110	-0.016894	-0.069161	-0.294686	0.953088	0.648936	-0.738909	-0.181374	0.757693	0.605949	0.242336
16001	9.279186	-1.696743	2.510092	0.024719	-0.012014	-0.017716	-0.069119	-0.294481	0.953154	0.649148	-0.738771	-0.181173	0.757515	0.606216	0.242225
16002	9.261039	-1.635313	2.463578	0.018725	-0.011283	-0.017313	-0.069073	-0.294286	0.953218	0.649315	-0.738668	-0.180997	0.757376	0.606437	0.242106
16003	9.300164	-1.687597	2.480715	0.017976	-0.012274	-0.019113	-0.069038	-0.294069	0.953288	0.649474	-0.738576	-0.180799	0.757243	0.606654	0.241980
16004	9.276158	-1.756696	2.449753	0.015686	-0.018621	-0.015476	-0.068925	-0.293842	0.953366	0.649620	-0.738485	-0.180648	0.757129	0.606874	0.241786
16005	9.340915	-1.782294	2.360334	0.008161	-0.024541	-0.016544	-0.068780	-0.293570	0.953460	0.649707	-0.738445	-0.180499	0.757067	0.607055	0.241525
16006	9.381764	-1.738903	2.265657	0.012668	-0.022850	-0.015056	-0.068632	-0.293321	0.953547	0.649829	-0.738372	-0.180359	0.756975	0.607265	0.241285
16007	9.372802	-1.685388	2.308585	0.011937	-0.020733	-0.018272	-0.068528	-0.293059	0.953635	0.649944	-0.738313	-0.180184	0.756886	0.607462	0.241067
16008	9.334738	-1.644902	2.307537	0.003724	-0.015348	-0.022994	-0.068488	-0.292797	0.953719	0.649994	-0.738317	-0.179990	0.756847	0.607584	0.240882
16009	9.359587	-1.711754	2.310527	-0.006077	-0.027487	-0.024227	-0.068372	-0.292449	0.953834	0.649967	-0.738387	-0.179801	0.756881	0.607667	0.240567
16010	9.331167	-1.754851	2.300382	-0.004581	-0.029896	-0.026126	-0.068243	-0.292075	0.953958	0.649951	-0.738450	-0.179597	0.756906	0.607770	0.240228
16011	9.386033	-1.760338	2.291258	-0.000104	-0.034416	-0.021807	-0.068058	-0.291703	0.954085	0.649973	-0.738474	-0.179418	0.756904	0.607918	0.239858
16012	9.347971	-1.751991	2.325408	0.005139	-0.036257	-0.020209	-0.067841	-0.291334	0.954213	0.650035	-0.738461	-0.179247	0.756870	0.608111	0.239476
16013	9.363397	-1.767321	2.372129	0.012657	-0.031881	-0.018443	-0.067654	-0.291003	0.954327	0.650155	-0.738399	-0.179069	0.756784	0.608346	0.239152
16014	9.305757	-1.747869	2.416208	0.017895	-0.035274	-0.016138	-0.067419	-0.290670	0.954445	0.650317	-0.738296	-0.178907	0.756666	0.608630	0.238802
16015	9.292551	-1.744534	2.381373	0.007370	-0.045297	-0.020579	-0.067144	-0.290240	0.954595	0.650395	-0.738271	-0.178721	0.756622	0.608864	0.238341
16016	9.327956	-1.754890	2.399342	0.008145	-0.039640	-0.020909	-0.066907	-0.289845	0.954732	0.650480	-0.738242	-0.178536	0.756571	0.609089	0.237932
16017	9.319524	-1.701109	2.440675	0.008906	-0.037090	-0.019822	-0.066689	-0.289472	0.954861	0.650571	-0.738205	-0.178354	0.756511	0.609311	0.237552
16018	9.315753	-1.689025	2.478437	0.004431	-0.031015	-0.024848	-0.066543	-0.289100	0.954983	0.650625	-0.738209	-0.178141	0.756478	0.609482	0.237218
16019	9.331696	-1.655942	2.470110	0.003690	-0.029031	-0.024254	-0.066415	-0.288742	0.955101	0.650673	-0.738218	-0.177929	0.756448	0.609641	0.236905
16020	9.332778	-1.653512	2.467650	-0.001543	-0.024084	-0.027265	-0.066337	-0.288395	0.955211	0.650680	-0.738266	-0.177707	0.756449	0.609748	0.236627
16021	9.304470	-1.680334	2.439851	-0.008279	-0.019702	-0.030769	-0.066321	-0.288046	0.955317	0.650636	-0.738363	-0.177461	0.756488	0.609794	0.236383
16022	9.324859	-1.704987	2.446770	-0.018773	-0.017708	-0.029434	-0.066306	-0.287722	0.955416	0.650511	-0.738522	-0.177259	0.756597	0.609756	0.236134
16023	9.340642	-1.748039	2.340484	-0.023276	-0.022370	-0.033310	-0.066288	-0.287338	0.955533	0.650349	-0.738721	-0.177024	0.756738	0.609695	0.235838
16024	9.361192	-1.756662	2.328674	-0.021764	-0.017277	-0.031132	-0.066286	-0.287003	0.955634	0.650200	-0.738903	-0.176812	0.756866	0.609633	0.235589
16025	9.342798	-1.726855	2.317565	-0.019516	-0.023074	-0.036737	-0.066285	-0.286590	0.955758	0.650065	-0.739087	-0.176536	0.756982	0.609603	0.235292
16026	9.348670	-1.781881	2.329617	-0.011264	-0.022358	-0.031061	-0.066244	-0.286224	0.955870	0.649996	-0.739204	-0.176300	0.757045	0.609633	0.235013
16027	9.378998	-1.765818	2.371420	-0.011260	-0.022354	-0.031062	-0.066210	-0.285858	0.955982	0.649930	-0.739320	-0.176058	0.757105	0.609664	0.234738
16028	9.350617	-1.824702	2.380590	-0.011251	-0.016276	-0.030082	-0.066209	-0.285537	0.956078	0.649862	-0.739434	-0.175832	0.757163	0.609677	0.234517
16029	9.351681	-1.773952	2.323572	-0.009748	-0.017123	-0.032696	-0.066226	-0.285190	0.956180	0.649803	-0.739548	-0.175571	0.757212	0.609701	0.234295
16030	9.367325	-1.756380	2.334550	-0.012744	-0.018250	-0.033683	-0.066234	-0.284830	0.956287	0.649721	-0.739681	-0.175314	0.757282	0.609708	0.234052
16031	9.348763	-1.742272	2.342536	-0.010488	-0.011894	-0.037327	-0.066320	-0.284480	0.956385	0.649652	-0.739813	-0.175010	0.757333	0.609711	0.233878
16032	9.383926	-1.719078	2.326012	-0.014980	-0.011895	-0.043327	-0.066439	-0.284088	0.956494	0.649547	-0.739987	-0.174666	0.757413	0.609683	0.233692
16033	9.345788	-1.693475	2.344009	-0.015727	-0.008499	-0.039624	-0.066565	-0.283742	0.956587	0.649439	-0.740155	-0.174353	0.757494	0.609639	0.233542
16034	9.317450	-1.703684	2.298577	-0.018720	-0.014286	-0.038491	-0.066634	-0.283371	0.956693	0.649309	-0.740338	-0.174063	0.757600	0.609590	0.233327
16035	9.406442	-1.719798	2.312008	-0.014962	-0.017949	-0.044320	-0.066720	-0.282932	0.956816	0.649201	-0.740517	-0.173703	0.757685	0.609577	0.233087
16036	9.373376	-1.719821	2.307064	-0.008214	-0.014689	-0.040552	-0.066798	-0.282543	0.956926	0.649149	-0.740641	-0.173369	0.757723	0.609607	0.232886
16037	9.369404	-1.706532	2.346804	0.000028	-0.007757	-0.037705	-0.066919	-0.282216	0.957014	0.649159	-0.740710	-0.173037	0.757704	0.609675	0.232770
16038	9.321531	-1.721226	2.329946	0.005287	-0.010849	-0.043042	-0.067043	-0.281831	0.957119	0.649207	-0.740759	-0.172647	0.757651	0.609793	0.232630
16039	9.371354	-1.698674	2.344719	0.010549	-0.018884	-0.038633	-0.067086	-0.281429	0.957234	0.649297	-0.740765	-0.172282	0.757571	0.609971	0.232426
16040	9.338260	-1.698542	2.340083	0.010549	-0.015773	-0.040049	-0.067153	-0.281037	0.957345	0.649387	-0.740773	-0.171909	0.757488	0.610143	0.232247
16041	9.334202	-1.668920	2.361695	0.009032	-0.005750	-0.037864	-0.067290	-0.280721	0.957428	0.649466	-0.740785	-0.171555	0.757407	0.610273	0.232166
16042	9.364001	-1.603298	2.350242	0.003783	-0.002225	-0.043970	-0.067485	-0.280382	0.957513	0.649502	-0.740845	-0.171160	0.757359	0.610356	0.232105
16043	9.330602	-1.602893	2.346905	0.000789	-0.001804	-0.045664	-0.067702	-0.280032	0.957600	0.649514	-0.740929	-0.170750	0.757330	0.610414	0.232047
16044	9.345714	-1.551715	2.322952	-0.011966	0.004804	-0.049432	-0.067987	-0.279696	0.957679	0.649426	-0.741100	-0.170339	0.757379	0.610361	0.232027
16045	9.351442	-1.573249	2.300449	-0.023942	0.000117	-0.049560	-0.068244	-0.279328	0.957768	0.649246	-0.741348	-0.169949	0.757510	0.610229	0.231945
16046	9.406681	-1.700456	2.250269	-0.029191	0.001799	-0.047332	-0.068492	-0.278989	0.957849	0.649030	-0.741618	-0.169598	0.757673	0.610056	0.231867
16047	9.412282	-1.690535	2.190353	-0.017919	-0.007061	-0.039540	-0.068628	-0.278652	0.957937	0.648906	-0.741796	-0.169291	0.757768	0.609993	0.231727
16048	9.441963	-1.625323	2.178332	-0.008169	-0.007021	-0.040296	-0.068763	-0.278311	0.958026	0.648853	-0.741918	-0.168959	0.757800	0.610000	0.231600
16049	9.378325	-1.499110	2.155501	0.001571	-0.005574	-0.037943	-0.068902	-0.277994	0.958108	0.648873	-0.741977	-0.168621	0.757770	0.610073	0.231507
16050	9.418710	-1.565336	2.190736	-0.003657	-0.008266	-0.041224	-0.069033	-0.277639	0.958202	0.648854	-0.742074	-0.168269	0.757775	0.610117	0.231375
16051	9.468204	-1.542682	2.206025	-0.008912	-0.004890	-0.043516	-0.069213	-0.277285	0.958292	0.648790	-0.742213	-0.167902	0.757813	0.610109	0.231271
16052	9.420726	-1.605783	2.244767	-0.006675	-0.001774	-0.041931	-0.069399	-0.276963	0.958371	0.648747	-0.742330	-0.167551	0.757833	0.610113	0.231196
16053	9.416313	-1.576456	2.266966	-0.006676	-0.001919	-0.038117	-0.069566	-0.276667	0.958444	0.648706	-0.742438	-0.167230	0.757853	0.610115	0.231124
16054	9.392196	-1.536464	2.298934	-0.008935	0.001040	-0.038716	-0.069752	-0.276387	0.958512	0.648649	-0.742559	-0.166915	0.757885	0.610095	0.231073
16055	9.387310	-1.475197	2.284567	-0.017175	0.001717	-0.041287	-0.069967	-0.276090	0.958582	0.648525	-0.742741	-0.166587	0.757971	0.610009	0.231019
16056	9.378007	-1.452382	2.366198	-0.028410	0.002808	-0.045551	-0.070211	-0.275769	0.958656	0.648315	-0.743000	-0.166251	0.758128	0.609838	0.230952
16057	9.335456	-1.525702	2.364258	-0.033657	0.002920	-0.042614	-0.070444	-0.275469	0.958725	0.648065	-0.743285	-0.165949	0.758320	0.609626	0.230881
16058	9.360686	-1.543160	2.313124	-0.034368	-0.004432	-0.037779	-0.070582	-0.275162	0.958803	0.647815	-0.743559	-0.165702	0.758521	0.609431	0.230736
16059	9.346853	-1.555256	2.299463	-0.020884	-0.003799	-0.035040	-0.070714	-0.274877	0.958875	0.647668	-0.743744	-0.165443	0.758634	0.609334	0.230622
16060	9.415552	-1.528236	2.286759	-0.003636	-0.007106	-0.030505	-0.070785	-0.274608	0.958947	0.647656	-0.743810	-0.165194	0.758638	0.609375	0.230502
16061	9.386101	-1.463294	2.341103	0.009065	-0.001393	-0.028572	-0.070894	-0.274386	0.959003	0.647742	-0.743794	-0.164928	0.758554	0.609494	0.230462
16062	9.391807	-1.502404	2.337364	0.009749	0.007060	-0.022664	-0.071021	-0.274262	0.959029	0.647837	-0.743756	-0.164723	0.758461	0.609596	0.230499
16063	9.387967	-1.566118	2.280047	0.005294	0.002392	-0.026551	-0.071146	-0.274077	0.959072	0.647894	-0.743759	-0.164484	0.758401	0.609675	0.230489
16064	9.378799	-1.588418	2.226432	0.000050	-0.000776	-0.018382	-0.071186	-0.273937	0.959110	0.647919	-0.743769	-0.164343	0.758376	0.609726	0.230435
16065	9.379440	-1.602823	2.244257	0.012113	-0.012997	-0.014306	-0.071115	-0.273750	0.959168	0.648037	-0.743697	-0.164207	0.758282	0.609898	0.230288
16066	9.390004	-1.620314	2.161011	0.016684	-0.023410	-0.014814	-0.070960	-0.273498	0.959252	0.648190	-0.743595	-0.164061	0.758165	0.610135	0.230044
16067	9.410942	-1.661455	2.185974	0.015966	-0.027503	-0.015206	-0.070784	-0.273216	0.959345	0.648338	-0.743500	-0.163908	0.758055	0.610377	0.229765
16068	9.430955	-1.638371	2.137187	0.013720	-0.027659	-0.014391	-0.070595	-0.272941	0.959437	0.648469	-0.743415	-0.163773	0.757961	0.610603	0.229475
16069	9.431766	-1.636437	2.135090	0.030943	-0.024570	-0.016506	-0.070450	-0.272667	0.959526	0.648729	-0.743233	-0.163573	0.757752	0.610948	0.229248
16070	9.407462	-1.581719	2.147006	0.039958	-0.027192	-0.014547	-0.070265	-0.272394	0.959617	0.649058	-0.742988	-0.163377	0.757487	0.611368	0.229006
16071	9.418057	-1.570991	2.217357	0.040682	-0.023090	-0.014162	-0.070116	-0.272146	0.959698	0.649392	-0.742740	-0.163177	0.757214	0.611779	0.228807
16072	9.393612	-1.516170	2.229880	0.033137	-0.015225	-0.017753	-0.070043	-0.271922	0.959767	0.649668	-0.742546	-0.162966	0.756985	0.612115	0.228669
16073	9.418261	-1.474311	2.295350	0.025642	-0.015135	-0.017808	-0.069977	-0.271696	0.959836	0.649887	-0.742397	-0.162766	0.756802	0.612395	0.228523
16074	9.404078	-1.470874	2.263300	0.020363	-0.010224	-0.020802	-0.069962	-0.271479	0.959898	0.650064	-0.742289	-0.162555	0.756652	0.612622	0.228411
16075	9.419068	-1.453399	2.275560	0.017343	-0.006708	-0.023908	-0.070000	-0.271260	0.959957	0.650215	-0.742209	-0.162316	0.756519	0.612816	0.228332
16076	9.395210	-1.446329	2.344510	0.010528	0.002135	-0.025698	-0.070110	-0.271083	0.959999	0.650313	-0.742174	-0.162080	0.756424	0.612937	0.228323
16077	9.343203	-1.517667	2.443386	0.000030	0.000764	-0.019094	-0.070174	-0.270944	0.960034	0.650338	-0.742186	-0.161926	0.756397	0.612983	0.228287
16078	9.354213	-1.583288	2.416925	0.002292	-0.000628	-0.019206	-0.070221	-0.270799	0.960071	0.650379	-0.742184	-0.161772	0.756357	0.613050	0.228238
16079	9.369182	-1.582842	2.448309	0.008244	0.002921	-0.010312	-0.070244	-0.270738	0.960087	0.650470	-0.742124	-0.161683	0.756277	0.613150	0.228237
16080	9.363351	-1.523833	2.434736	0.008924	0.011680	-0.012051	-0.070338	-0.270721	0.960085	0.650566	-0.742062	-0.161582	0.756186	0.613233	0.228317
16081	9.357389	-1.464657	2.421720	0.002147	0.016009	-0.015537	-0.070494	-0.270703	0.960078	0.650608	-0.742052	-0.161457	0.756135	0.613253	0.228432
16082	9.362161	-1.472744	2.382424	-0.009112	0.018613	-0.020498	-0.070695	-0.270666	0.960074	0.650562	-0.742123	-0.161316	0.756156	0.613183	0.228549
16083	9.366664	-1.464680	2.324718	-0.017357	0.019260	-0.023062	-0.070925	-0.270611	0.960073	0.650451	-0.742253	-0.161164	0.756229	0.613050	0.228663
16084	9.377410	-1.530401	2.299559	-0.020318	0.015003	-0.022631	-0.071112	-0.270536	0.960080	0.650319	-0.742399	-0.161028	0.756326	0.612907	0.228728
16085	9.382408	-1.538709	2.259411	-0.023264	0.007482	-0.016964	-0.071213	-0.270455	0.960095	0.650167	-0.742549	-0.160948	0.756447	0.612761	0.228720
16086	9.411075	-1.491446	2.266969	-0.014250	0.006582	-0.019530	-0.071317	-0.270351	0.960117	0.650082	-0.742649	-0.160828	0.756510	0.612685	0.228714
16087	9.421984	-1.557673	2.240990	-0.011294	0.008978	-0.011615	-0.071395	-0.270318	0.960120	0.650025	-0.742711	-0.160771	0.756551	0.612624	0.228739
16088	9.391638	-1.494906	2.296463	-0.001588	0.011865	-0.006153	-0.071451	-0.270346	0.960108	0.650046	-0.742697	-0.160751	0.756528	0.612629	0.228804
16089	9.391228	-1.478178	2.278923	-0.000785	0.006944	-0.009160	-0.071497	-0.270319	0.960112	0.650071	-0.742688	-0.160694	0.756503	0.612652	0.228827
16090	9.410869	-1.488085	2.270030	-0.000061	0.009487	-0.008065	-0.071549	-0.270318	0.960109	0.650102	-0.742670	-0.160652	0.756471	0.612674	0.228871
16091	9.425180	-1.472234	2.283834	-0.004574	0.012426	-0.011665	-0.071652	-0.270307	0.960104	0.650096	-0.742691	-0.160580	0.756466	0.612654	0.228941
16092	9.371261	-1.464825	2.291372	-0.011314	0.012090	-0.013033	-0.071756	-0.270285	0.960103	0.650038	-0.742755	-0.160516	0.756506	0.612586	0.228992
16093	9.435972	-1.537672	2.259045	-0.018764	0.007657	-0.014790	-0.071844	-0.270220	0.960114	0.649923	-0.742871	-0.160445	0.756597	0.612473	0.228993
16094	9.455441	-1.531421	2.231317	-0.017246	0.005124	-0.012883	-0.071893	-0.270157	0.960128	0.649820	-0.742972	-0.160396	0.756681	0.612379	0.228968
16095	9.421087	-1.519080	2.209861	-0.015741	0.002432	-0.007156	-0.071893	-0.270117	0.960140	0.649732	-0.743049	-0.160393	0.756756	0.612303	0.228924
16096	9.430161	-1.477999	2.245526	-0.012803	0.009806	-0.008999	-0.071952	-0.270111	0.960137	0.649666	-0.743112	-0.160371	0.756807	0.612229	0.228951
16097	9.376034	-1.454831	2.234054	-0.014981	0.003736	-0.012994	-0.071999	-0.270036	0.960154	0.649581	-0.743199	-0.160309	0.756875	0.612156	0.228920
16098	9.410291	-1.449625	2.237207	-0.020948	0.001435	-0.014967	-0.072034	-0.269935	0.960180	0.649449	-0.743328	-0.160248	0.756986	0.612045	0.228854
16099	9.410772	-1.464961	2.255362	-0.031450	0.001756	-0.012902	-0.072065	-0.269848	0.960202	0.649239	-0.743516	-0.160226	0.757162	0.611854	0.228778
16100	9.416857	-1.522386	2.269322	-0.038209	0.002820	-0.011161	-0.072086	-0.269783	0.960219	0.648979	-0.743740	-0.160241	0.757383	0.611611	0.228697
16101	9.388139	-1.552266	2.243423	-0.043486	0.006016	-0.009633	-0.072128	-0.269748	0.960226	0.648681	-0.743992	-0.160277	0.757635	0.611320	0.228643
16102	9.397261	-1.511477	2.278638	-0.040450	0.004382	-0.014876	-0.072185	-0.269664	0.960245	0.648401	-0.744240	-0.160262	0.757869	0.611055	0.228573
16103	9.402654	-1.536614	2.256208	-0.031511	0.009393	-0.012618	-0.072272	-0.269627	0.960249	0.648190	-0.744427	-0.160242	0.758041	0.610843	0.228570
16104	9.349083	-1.545948	2.281570	-0.030788	0.011937	-0.011521	-0.072364	-0.269615	0.960245	0.647986	-0.744607	-0.160237	0.758207	0.610630	0.228589
16105	9.382826	-1.525063	2.266913	-0.024001	0.007766	-0.011853	-0.072434	-0.269573	0.960252	0.647833	-0.744746	-0.160207	0.758331	0.610478	0.228583
16106	9.403169	-1.567438	2.294354	-0.027019	0.009568	-0.010433	-0.072501	-0.269555	0.960252	0.647657	-0.744899	-0.160203	0.758475	0.610299	0.228585
16107	9.382669	-1.524438	2.267984	-0.031565	0.013745	-0.007099	-0.072585	-0.269585	0.960237	0.647450	-0.745072	-0.160236	0.758643	0.610075	0.228623
16108	9.391803	-1.500069	2.322511	-0.034543	0.012599	-0.008091	-0.072660	-0.269602	0.960227	0.647219	-0.745265	-0.160273	0.758833	0.609832	0.228642
16109	9.425486	-1.479233	2.308065	-0.033752	0.012529	-0.017044	-0.072799	-0.269551	0.960231	0.646989	-0.745478	-0.160215	0.759016	0.609595	0.228666
16110	9.416380	-1.519063	2.273522	-0.033068	0.018021	-0.013532	-0.072950	-0.269561	0.960216	0.646765	-0.745676	-0.160196	0.759193	0.609348	0.228740
16111	9.347913	-1.527271	2.268471	-0.039858	0.023758	-0.013908	-0.073155	-0.269600	0.960190	0.646489	-0.745918	-0.160183	0.759408	0.609034	0.228861
16112	9.367442	-1.537326	2.260059	-0.036770	0.015901	-0.016336	-0.073308	-0.269576	0.960185	0.646235	-0.746146	-0.160145	0.759609	0.608765	0.228908
16113	9.387597	-1.579607	2.288328	-0.036112	0.024509	-0.014229	-0.073520	-0.269619	0.960157	0.645988	-0.746365	-0.160120	0.759799	0.608478	0.229044
16114	9.352868	-1.567362	2.268390	-0.034594	0.021971	-0.012328	-0.073694	-0.269661	0.960131	0.645754	-0.746569	-0.160116	0.759981	0.608209	0.229152
16115	9.377140	-1.570717	2.200989	-0.027092	0.020338	-0.011554	-0.073857	-0.269698	0.960108	0.645577	-0.746726	-0.160097	0.760115	0.608000	0.229262
16116	9.391543	-1.571366	2.233656	-0.024070	0.018543	-0.012975	-0.074009	-0.269715	0.960092	0.645422	-0.746867	-0.160062	0.760232	0.607818	0.229355
16117	9.415197	-1.547787	2.319923	-0.017295	0.012636	-0.008780	-0.074095	-0.269726	0.960082	0.645323	-0.746956	-0.160047	0.760308	0.607704	0.229406
16118	9.434715	-1.557741	2.311673	-0.003900	0.021093	-0.009525	-0.074244	-0.269784	0.960054	0.645323	-0.746966	-0.160000	0.760293	0.607666	0.229556
16119	9.346104	-1.539373	2.298160	-0.003903	0.016067	0.000224	-0.074299	-0.269883	0.960022	0.645331	-0.746950	-0.160040	0.760281	0.607642	0.229661
16120	9.390582	-1.569926	2.238706	-0.000771	0.001966	0.000607	-0.074236	-0.269901	0.960022	0.645363	-0.746913	-0.160083	0.760260	0.607679	0.229632
16121	9.404876	-1.554893	2.251853	-0.000752	0.002140	-0.003214	-0.074208	-0.269889	0.960028	0.645392	-0.746889	-0.160083	0.760239	0.607715	0.229609
16122	9.413959	-1.530532	2.306167	-0.005314	0.007870	-0.000581	-0.074198	-0.269933	0.960016	0.645388	-0.746883	-0.160124	0.760242	0.607702	0.229629
16123	9.354772	-1.514992	2.354145	-0.009802	0.009269	-0.003482	-0.074226	-0.269963	0.960006	0.645348	-0.746914	-0.160142	0.760274	0.607651	0.229660
16124	9.345805	-1.555361	2.318991	-0.014244	0.004428	-0.003572	-0.074209	-0.269964	0.960006	0.645275	-0.746970	-0.160176	0.760338	0.607581	0.229633
16125	9.399614	-1.561459	2.312922	-0.012007	0.006157	-0.005086	-0.074223	-0.269963	0.960006	0.645216	-0.747019	-0.160184	0.760386	0.607522	0.229631
16126	9.399424	-1.561357	2.313762	-0.009867	0.015335	-0.002472	-0.074283	-0.270039	0.959980	0.645177	-0.747046	-0.160218	0.760414	0.607455	0.229715
16127	9.388838	-1.542581	2.396704	-0.003815	0.010180	-0.004605	-0.074324	-0.270066	0.959969	0.645182	-0.747042	-0.160212	0.760405	0.607447	0.229764
16128	9.374574	-1.573454	2.403115	-0.007617	0.015504	-0.003283	-0.074390	-0.270137	0.959944	0.645159	-0.747058	-0.160233	0.760418	0.607397	0.229854
16129	9.442352	-1.564548	2.411430	0.010285	0.019443	0.000290	-0.074470	-0.270256	0.959904	0.645275	-0.746955	-0.160241	0.760312	0.607469	0.230015
16130	9.352975	-1.514119	2.361835	0.010960	0.024929	0.003811	-0.074562	-0.270438	0.959846	0.645399	-0.746839	-0.160288	0.760198	0.607532	0.230226
16131	9.303443	-1.501217	2.311149	0.001282	0.020334	0.002826	-0.074632	-0.270582	0.959800	0.645450	-0.746783	-0.160341	0.760148	0.607536	0.230381
16132	9.376157	-1.485529	2.260277	-0.004604	0.015269	-0.005408	-0.074710	-0.270636	0.959778	0.645448	-0.746786	-0.160335	0.760142	0.607509	0.230473
16133	9.396505	-1.544165	2.306878	-0.012836	0.017489	-0.008705	-0.074833	-0.270677	0.959757	0.645382	-0.746849	-0.160310	0.760186	0.607413	0.230579
16134	9.421217	-1.563800	2.257704	-0.017355	0.016979	-0.003266	-0.074910	-0.270757	0.959729	0.645285	-0.746923	-0.160354	0.760261	0.607286	0.230667
16135	9.395663	-1.527688	2.291122	-0.011304	0.011822	-0.005395	-0.074969	-0.270788	0.959715	0.645232	-0.746968	-0.160357	0.760299	0.607217	0.230720
16136	9.361073	-1.515777	2.270519	-0.009849	0.013782	-0.001777	-0.075012	-0.270859	0.959692	0.645193	-0.746993	-0.160398	0.760328	0.607155	0.230790
16137	9.409564	-1.512602	2.305824	-0.009729	0.003208	-0.004502	-0.075000	-0.270845	0.959697	0.645154	-0.747025	-0.160406	0.760363	0.607122	0.230763
16138	9.381768	-1.591077	2.334683	-0.006757	0.001057	0.001724	-0.074924	-0.270865	0.959697	0.645141	-0.747022	-0.160474	0.760381	0.607117	0.230716
16139	9.361379	-1.548264	2.307933	-0.003767	0.003942	-0.001799	-0.074900	-0.270875	0.959696	0.645148	-0.747011	-0.160494	0.760377	0.607125	0.230706
16140	9.384318	-1.492849	2.357162	-0.004559	0.009030	-0.002597	-0.074912	-0.270912	0.959685	0.645149	-0.747006	-0.160515	0.760375	0.607115	0.230738
16141	9.350317	-1.513287	2.372865	-0.003071	0.009604	-0.002096	-0.074932	-0.270955	0.959671	0.645164	-0.746990	-0.160531	0.760361	0.607116	0.230784
16142	9.404528	-1.551581	2.404099	-0.003818	0.011748	-0.005311	-0.074983	-0.270988	0.959658	0.645168	-0.746987	-0.160524	0.760352	0.607104	0.230844
16143	9.389767	-1.550279	2.373688	-0.006832	0.008686	0.002032	-0.074970	-0.271055	0.959640	0.645155	-0.746985	-0.160589	0.760365	0.607077	0.230874
16144	9.377803	-1.467205	2.383866	-0.005459	0.023135	0.000033	-0.075072	-0.271197	0.959592	0.645151	-0.746978	-0.160636	0.760358	0.607022	0.231041
16145	9.357292	-1.440435	2.377017	-0.007616	0.017077	-0.003992	-0.075162	-0.271271	0.959564	0.645128	-0.746996	-0.160645	0.760369	0.606967	0.231150
16146	9.356937	-1.440335	2.378476	-0.025575	0.019210	-0.006577	-0.075278	-0.271340	0.959535	0.644966	-0.747130	-0.160676	0.760495	0.606772	0.231247
16147	9.407326	-1.512331	2.315112	-0.035257	0.016178	-0.008278	-0.075389	-0.271376	0.959516	0.644729	-0.747327	-0.160707	0.760684	0.606513	0.231304
16148	9.372971	-1.516970	2.312650	-0.044258	0.017072	-0.005753	-0.075483	-0.271438	0.959491	0.644426	-0.747571	-0.160789	0.760932	0.606184	0.231350
16149	9.392786	-1.544184	2.321960	-0.046446	0.012402	-0.006666	-0.075554	-0.271463	0.959479	0.644105	-0.747831	-0.160862	0.761196	0.605852	0.231353
16150	9.397870	-1.553707	2.281723	-0.041238	0.016847	-0.007873	-0.075660	-0.271508	0.959458	0.643823	-0.748063	-0.160917	0.761425	0.605546	0.231401
16151	9.392066	-1.528406	2.305349	-0.036728	0.015626	-0.008786	-0.075769	-0.271537	0.959441	0.643576	-0.748269	-0.160947	0.761623	0.605278	0.231451
16152	9.392279	-1.560862	2.342927	-0.033770	0.019901	-0.009184	-0.075907	-0.271590	0.959415	0.643349	-0.748458	-0.160972	0.761800	0.605020	0.231540
16153	9.371874	-1.533986	2.335782	-0.028546	0.021218	-0.008985	-0.076061	-0.271651	0.959385	0.643163	-0.748616	-0.160981	0.761942	0.604797	0.231656
16154	9.405657	-1.529360	2.340563	-0.033716	0.016965	-0.011609	-0.076192	-0.271668	0.959370	0.642935	-0.748812	-0.160983	0.762122	0.604547	0.231718
16155	9.357331	-1.564656	2.343365	-0.038226	0.019759	-0.011401	-0.076350	-0.271703	0.959348	0.642673	-0.749035	-0.160991	0.762326	0.604256	0.231805
16156	9.357038	-1.564613	2.344565	-0.042717	0.019427	-0.009794	-0.076488	-0.271748	0.959324	0.642378	-0.749280	-0.161031	0.762562	0.603931	0.231876
16157	9.390548	-1.544039	2.331091	-0.039742	0.020576	-0.008788	-0.076636	-0.271806	0.959296	0.642105	-0.749505	-0.161068	0.762776	0.603625	0.231967
16158	9.389983	-1.527851	2.314182	-0.041222	0.020010	-0.009295	-0.076775	-0.271859	0.959270	0.641821	-0.749740	-0.161109	0.763001	0.603310	0.232046
16159	9.350522	-1.539443	2.370805	-0.045623	0.015361	-0.013236	-0.076912	-0.271853	0.959260	0.641501	-0.750012	-0.161118	0.763257	0.602975	0.232079
16160	9.384157	-1.518796	2.356902	-0.059850	0.018075	-0.012330	-0.077056	-0.271871	0.959244	0.641072	-0.750366	-0.161173	0.763602	0.602525	0.232109
16161	9.395256	-1.569501	2.311911	-0.064253	0.014998	-0.016975	-0.077214	-0.271834	0.959241	0.640607	-0.750760	-0.161189	0.763977	0.602051	0.232108
16162	9.386574	-1.609698	2.276343	-0.059052	0.014563	-0.012251	-0.077330	-0.271832	0.959233	0.640184	-0.751109	-0.161243	0.764320	0.601616	0.232106
16163	9.358300	-1.655925	2.268331	-0.053032	0.009219	-0.010564	-0.077402	-0.271809	0.959234	0.639809	-0.751418	-0.161294	0.764626	0.601241	0.232067
16164	9.377697	-1.633704	2.222395	-0.042538	0.007341	-0.011873	-0.077461	-0.271765	0.959241	0.639512	-0.751666	-0.161314	0.764869	0.600951	0.232022
16165	9.338041	-1.612574	2.241659	-0.034294	0.005292	-0.012380	-0.077516	-0.271704	0.959254	0.639277	-0.751868	-0.161304	0.765059	0.600726	0.231976
16166	9.372262	-1.607698	2.244861	-0.030484	-0.001600	-0.013015	-0.077514	-0.271599	0.959284	0.639072	-0.752047	-0.161285	0.765231	0.600550	0.231865
16167	9.423765	-1.539101	2.338372	-0.023117	0.004187	-0.008050	-0.077531	-0.271564	0.959292	0.638927	-0.752169	-0.161291	0.765351	0.600412	0.231826
16168	9.344508	-1.513514	2.395495	-0.025406	0.011851	-0.010730	-0.077618	-0.271556	0.959288	0.638762	-0.752311	-0.161282	0.765480	0.600238	0.231852
16169	9.350313	-1.554831	2.391290	-0.034344	0.009806	-0.010652	-0.077695	-0.271536	0.959287	0.638528	-0.752508	-0.161288	0.765667	0.600000	0.231850
16170	9.370123	-1.564861	2.382091	-0.027604	0.010319	-0.013056	-0.077785	-0.271501	0.959290	0.638344	-0.752669	-0.161262	0.765811	0.599813	0.231857
16171	9.384193	-1.549580	2.396078	-0.031400	0.015651	-0.011725	-0.077914	-0.271508	0.959277	0.638134	-0.752850	-0.161252	0.765973	0.599583	0.231915
16172	9.364322	-1.555172	2.425000	-0.029932	0.019358	-0.012609	-0.078069	-0.271531	0.959258	0.637932	-0.753024	-0.161235	0.766125	0.599354	0.232006
16173	9.377584	-1.490739	2.385132	-0.034367	0.016087	-0.013442	-0.078213	-0.271527	0.959248	0.637696	-0.753229	-0.161216	0.766307	0.599099	0.232064
16174	9.369144	-1.546773	2.368061	-0.035127	0.016490	-0.012135	-0.078344	-0.271536	0.959234	0.637455	-0.753432	-0.161216	0.766494	0.598839	0.232119
16175	9.286703	-1.570109	2.348517	-0.041060	0.015786	-0.014869	-0.078494	-0.271519	0.959227	0.637166	-0.753681	-0.161198	0.766719	0.598533	0.232163
16176	9.340570	-1.575501	2.343069	-0.037257	0.010462	-0.016205	-0.078605	-0.271462	0.959234	0.636905	-0.753909	-0.161164	0.766925	0.598273	0.232156
16177	9.366750	-1.659910	2.365366	-0.022466	0.014381	-0.006593	-0.078691	-0.271500	0.959216	0.636767	-0.754021	-0.161182	0.767030	0.598114	0.232217
16178	9.360352	-1.601690	2.353190	-0.007532	0.012635	-0.005667	-0.078751	-0.271535	0.959201	0.636743	-0.754042	-0.161180	0.767044	0.598071	0.232279
16179	9.340263	-1.591100	2.363807	-0.003061	0.009637	-0.002056	-0.078773	-0.271578	0.959187	0.636755	-0.754028	-0.161197	0.767032	0.598069	0.232325
16180	9.359300	-1.551817	2.300925	-0.004521	0.012410	-0.007775	-0.078844	-0.271595	0.959176	0.636752	-0.754037	-0.161168	0.767027	0.598050	0.232390
16181	9.373578	-1.552685	2.333175	0.004495	0.006821	-0.008193	-0.078884	-0.271576	0.959179	0.636818	-0.753994	-0.161109	0.766968	0.598113	0.232422
16182	9.373319	-1.535596	2.315698	0.002984	0.004479	-0.004188	-0.078871	-0.271573	0.959181	0.636875	-0.753948	-0.161096	0.766922	0.598173	0.232423
16183	9.396472	-1.529618	2.419992	0.000721	0.007445	-0.004778	-0.078894	-0.271583	0.959176	0.636915	-0.753918	-0.161078	0.766886	0.598206	0.232455
16184	9.361682	-1.484418	2.362722	0.000739	0.004308	-0.003390	-0.078875	-0.271585	0.959177	0.636956	-0.753883	-0.161079	0.766854	0.598249	0.232450
16185	9.361553	-1.484254	2.363333	-0.005306	0.009466	-0.001259	-0.078891	-0.271633	0.959162	0.636952	-0.753881	-0.161109	0.766856	0.598230	0.232492
16186	9.381308	-1.494590	2.354257	-0.007487	0.004794	-0.002201	-0.078868	-0.271647	0.959160	0.636931	-0.753892	-0.161140	0.766876	0.598210	0.232479
16187	9.415442	-1.506550	2.376473	-0.012003	0.009157	-0.002687	-0.078890	-0.271683	0.959148	0.636874	-0.753933	-0.161172	0.766921	0.598141	0.232506
16188	9.347342	-1.532115	2.388030	-0.014304	0.011919	0.000544	-0.078905	-0.271760	0.959125	0.636803	-0.753978	-0.161245	0.766979	0.598050	0.232551
16189	9.338930	-1.588857	2.370569	-0.009788	0.007556	0.001030	-0.078890	-0.271815	0.959110	0.636769	-0.753993	-0.161308	0.767008	0.598006	0.232567
16190	9.338893	-1.605608	2.389403	-0.003872	0.011400	0.002380	-0.078890	-0.271904	0.959085	0.636779	-0.753970	-0.161374	0.767000	0.597995	0.232623
16191	9.392413	-1.595248	2.366053	0.007405	0.002843	0.002555	-0.078829	-0.271942	0.959080	0.636878	-0.753878	-0.161412	0.766924	0.598093	0.232621
16192	9.372545	-1.601357	2.394441	0.013313	0.008256	0.003211	-0.078799	-0.272017	0.959061	0.637021	-0.753751	-0.161446	0.766809	0.598220	0.232675
16193	9.351917	-1.558341	2.369048	0.017717	0.009758	0.008565	-0.078754	-0.272142	0.959029	0.637201	-0.753583	-0.161517	0.766663	0.598374	0.232757
16194	9.345862	-1.533399	2.392994	0.013323	0.006689	0.003905	-0.078707	-0.272213	0.959013	0.637344	-0.753453	-0.161558	0.766549	0.598505	0.232796
16195	9.365552	-1.543752	2.384188	0.010353	0.007120	0.002188	-0.078683	-0.272274	0.958997	0.637462	-0.753348	-0.161584	0.766453	0.598611	0.232840
16196	9.370892	-1.552507	2.344059	0.014805	0.007259	0.004415	-0.078638	-0.272352	0.958979	0.637617	-0.753207	-0.161627	0.766329	0.598751	0.232887
16197	9.389947	-1.513732	2.281131	0.017776	0.006829	0.006131	-0.078586	-0.272441	0.958958	0.637795	-0.753046	-0.161674	0.766186	0.598914	0.232940
16198	9.395527	-1.539134	2.258815	0.018572	0.000157	0.007600	-0.078466	-0.272501	0.958951	0.637982	-0.752875	-0.161738	0.766044	0.599102	0.232925
16199	9.423263	-1.476983	2.249667	0.016312	0.003124	0.007008	-0.078380	-0.272573	0.958937	0.638149	-0.752720	-0.161797	0.765912	0.599263	0.232941
16200	9.409410	-1.524795	2.272851	0.020111	-0.002206	0.005679	-0.078254	-0.272605	0.958938	0.638346	-0.752544	-0.161840	0.765762	0.599470	0.232906
16201	9.389367	-1.514694	2.282879	0.018512	0.004664	0.009336	-0.078165	-0.272704	0.958917	0.638532	-0.752370	-0.161916	0.765615	0.599643	0.232939
16202	9.369476	-1.521030	2.311132	0.010380	0.002418	0.004269	-0.078083	-0.272753	0.958910	0.638653	-0.752256	-0.161967	0.765523	0.599764	0.232933
16203	9.369175	-1.504764	2.293399	0.002191	0.003106	0.001634	-0.078031	-0.272785	0.958905	0.638709	-0.752200	-0.162007	0.765482	0.599819	0.232925
16204	9.409150	-1.541937	2.292305	-0.004445	-0.001708	-0.001532	-0.077955	-0.272765	0.958917	0.638711	-0.752191	-0.162038	0.765488	0.599839	0.232855
16205	9.389669	-1.564500	2.337853	-0.004486	-0.001910	0.002290	-0.077861	-0.272772	0.958923	0.638715	-0.752175	-0.162100	0.765494	0.599857	0.232788
16206	9.369789	-1.554441	2.347182	-0.005967	-0.002479	0.001779	-0.077757	-0.272772	0.958931	0.638708	-0.752166	-0.162166	0.765510	0.599868	0.232708
16207	9.378382	-1.531094	2.401231	-0.000757	-0.001170	0.002003	-0.077670	-0.272781	0.958936	0.638743	-0.752126	-0.162216	0.765490	0.599914	0.232655
16208	9.350249	-1.577394	2.392718	-0.005265	0.001626	0.002207	-0.077595	-0.272810	0.958934	0.638742	-0.752112	-0.162284	0.765498	0.599919	0.232615
16209	9.315935	-1.565933	2.370948	-0.008269	0.000285	0.005007	-0.077501	-0.272850	0.958930	0.638719	-0.752110	-0.162381	0.765527	0.599902	0.232564
16210	9.350106	-1.578303	2.392677	-0.011206	0.002486	-0.001225	-0.077455	-0.272858	0.958931	0.638670	-0.752141	-0.162430	0.765572	0.599860	0.232523
16211	9.316171	-1.599308	2.407298	-0.011985	0.006022	-0.001307	-0.077444	-0.272885	0.958924	0.638614	-0.752179	-0.162475	0.765620	0.599800	0.232520
16212	9.341535	-1.618704	2.356920	-0.015705	0.003714	-0.000326	-0.077401	-0.272907	0.958922	0.638532	-0.752235	-0.162544	0.765693	0.599721	0.232484
16213	9.395780	-1.657748	2.387214	-0.018675	0.004146	-0.002043	-0.077381	-0.272918	0.958920	0.638426	-0.752313	-0.162597	0.765784	0.599618	0.232452
16214	9.395113	-1.608721	2.333261	-0.010502	0.006593	-0.000796	-0.077363	-0.272953	0.958912	0.638383	-0.752338	-0.162649	0.765821	0.599570	0.232452
16215	9.369386	-1.589697	2.384806	0.003582	0.014453	0.001107	-0.077401	-0.273050	0.958881	0.638450	-0.752274	-0.162681	0.765762	0.599606	0.232556
16216	9.321076	-1.625483	2.387035	0.008827	0.007917	0.004805	-0.077358	-0.273136	0.958860	0.638559	-0.752169	-0.162742	0.765675	0.599699	0.232599
16217	9.360541	-1.629776	2.350376	0.007449	0.003048	-0.001265	-0.077324	-0.273146	0.958860	0.638654	-0.752088	-0.162742	0.765599	0.599795	0.232601
16218	9.394319	-1.608692	2.336478	0.013382	0.003755	0.001474	-0.077271	-0.273182	0.958854	0.638795	-0.751964	-0.162760	0.765487	0.599935	0.232612
16219	9.387883	-1.534147	2.305772	0.011129	0.005154	0.001576	-0.077235	-0.273226	0.958844	0.638920	-0.751854	-0.162778	0.765386	0.600052	0.232639
16220	9.362306	-1.514775	2.356865	-0.000737	0.003739	-0.003903	-0.077215	-0.273221	0.958847	0.638949	-0.751830	-0.162778	0.765364	0.600085	0.232627
16221	9.368088	-1.539682	2.334082	-0.007422	0.000292	-0.003945	-0.077178	-0.273195	0.958858	0.638927	-0.751846	-0.162787	0.765386	0.600077	0.232577
16222	9.373882	-1.564661	2.311205	-0.009682	0.003259	-0.004539	-0.077159	-0.273182	0.958863	0.638887	-0.751877	-0.162801	0.765421	0.600044	0.232546
16223	9.379641	-1.589679	2.288448	-0.006712	0.002829	-0.002822	-0.077134	-0.273179	0.958866	0.638871	-0.751887	-0.162819	0.765437	0.600033	0.232522
16224	9.413858	-1.601506	2.310328	-0.004458	0.001431	-0.002923	-0.077090	-0.273168	0.958873	0.638872	-0.751882	-0.162836	0.765441	0.600044	0.232482
16225	9.374258	-1.596885	2.347698	-0.001447	0.001203	-0.005027	-0.077066	-0.273139	0.958883	0.638895	-0.751866	-0.162821	0.765424	0.600078	0.232450
16226	9.354215	-1.569839	2.339238	-0.004451	-0.000138	-0.002229	-0.077006	-0.273123	0.958892	0.638897	-0.751859	-0.162845	0.765428	0.600093	0.232395
16227	9.340160	-1.584498	2.325725	-0.005160	-0.002675	-0.003353	-0.076942	-0.273083	0.958909	0.638892	-0.751861	-0.162855	0.765439	0.600109	0.232321
16228	9.380170	-1.604834	2.305981	-0.005821	-0.006576	-0.007604	-0.076867	-0.272988	0.958942	0.638880	-0.751877	-0.162830	0.765457	0.600132	0.232201
16229	9.380259	-1.587879	2.287165	-0.004332	-0.007576	-0.006399	-0.076785	-0.272897	0.958974	0.638880	-0.751881	-0.162809	0.765465	0.600168	0.232081
16230	9.346382	-1.575403	2.264323	-0.013212	-0.012559	-0.008773	-0.076672	-0.272757	0.959023	0.638810	-0.751945	-0.162790	0.765535	0.600152	0.231893
16231	9.367082	-1.617963	2.289597	-0.016195	-0.008988	-0.011879	-0.076614	-0.272615	0.959068	0.638714	-0.752036	-0.162744	0.765620	0.600102	0.231740
16232	9.327884	-1.613233	2.325508	-0.022910	-0.014208	-0.007408	-0.076479	-0.272476	0.959118	0.638571	-0.752154	-0.162761	0.765753	0.600017	0.231520
16233	9.436280	-1.624568	2.311886	-0.007929	-0.017317	-0.009595	-0.076342	-0.272302	0.959179	0.638541	-0.752189	-0.162717	0.765792	0.600053	0.231300
16234	9.385286	-1.552738	2.376115	-0.003604	-0.000124	-0.011179	-0.076340	-0.272219	0.959202	0.638543	-0.752201	-0.162653	0.765790	0.600075	0.231246
16235	9.297403	-1.550477	2.378547	-0.007403	0.005207	-0.009847	-0.076377	-0.272178	0.959211	0.638517	-0.752234	-0.162606	0.765808	0.600053	0.231244
16236	9.345518	-1.513891	2.377439	-0.011007	-0.002967	-0.013736	-0.076369	-0.272059	0.959245	0.638460	-0.752297	-0.162535	0.765857	0.600027	0.231151
16237	9.400143	-1.551442	2.407329	-0.015481	0.001604	-0.018046	-0.076431	-0.271934	0.959276	0.638365	-0.752401	-0.162427	0.765930	0.599954	0.231101
16238	9.393962	-1.492199	2.394842	-0.011193	0.017024	-0.015112	-0.076585	-0.271925	0.959266	0.638306	-0.752470	-0.162343	0.765964	0.599872	0.231199
16239	9.353963	-1.470453	2.415439	-0.016398	0.015715	-0.015339	-0.076737	-0.271906	0.959259	0.638208	-0.752569	-0.162264	0.766030	0.599755	0.231283
16240	9.385578	-1.546434	2.379069	-0.024572	0.014839	-0.017285	-0.076888	-0.271867	0.959258	0.638044	-0.752724	-0.162190	0.766151	0.599579	0.231339
16241	9.377124	-1.568812	2.325240	-0.037109	0.006186	-0.021818	-0.077009	-0.271742	0.959284	0.637782	-0.752967	-0.162097	0.766358	0.599331	0.231297
16242	9.403209	-1.619703	2.310825	-0.041663	0.010346	-0.018486	-0.077134	-0.271666	0.959295	0.637486	-0.753227	-0.162051	0.766591	0.599038	0.231283
16243	9.377323	-1.567219	2.325514	-0.049100	0.007299	-0.017230	-0.077235	-0.271582	0.959311	0.637133	-0.753531	-0.162029	0.766875	0.598694	0.231232
16244	9.403657	-1.635034	2.328703	-0.043099	0.003509	-0.016233	-0.077292	-0.271482	0.959335	0.636827	-0.753793	-0.162008	0.767123	0.598409	0.231150
16245	9.389568	-1.632782	2.296816	-0.033368	-0.001113	-0.014826	-0.077312	-0.271366	0.959366	0.636599	-0.753994	-0.161973	0.767310	0.598209	0.231045
16246	9.397616	-1.559331	2.296649	-0.035627	0.001859	-0.015416	-0.077352	-0.271263	0.959392	0.636351	-0.754209	-0.161943	0.767511	0.597984	0.230958
16247	9.391916	-1.533371	2.319683	-0.036388	0.010327	-0.021390	-0.077502	-0.271166	0.959407	0.636093	-0.754446	-0.161852	0.767710	0.597729	0.230958
16248	9.330220	-1.599346	2.325731	-0.035679	0.012865	-0.020261	-0.077656	-0.271092	0.959416	0.635842	-0.754675	-0.161775	0.767903	0.597474	0.230977
16249	9.369812	-1.585802	2.270520	-0.033318	0.000688	-0.019351	-0.077720	-0.270952	0.959450	0.635607	-0.754890	-0.161696	0.768091	0.597266	0.230889
16250	9.404344	-1.596705	2.291826	-0.016199	-0.001098	-0.015372	-0.077736	-0.270831	0.959483	0.635508	-0.754989	-0.161621	0.768171	0.597196	0.230806
16251	9.406448	-1.497595	2.315257	-0.008770	0.003531	-0.017315	-0.077808	-0.270724	0.959507	0.635467	-0.755048	-0.161505	0.768198	0.597169	0.230785
16252	9.347407	-1.515215	2.398536	-0.006633	0.006415	-0.011847	-0.077860	-0.270675	0.959517	0.635445	-0.755081	-0.161442	0.768211	0.597150	0.230789
16253	9.313288	-1.502341	2.376861	-0.011743	-0.002536	-0.012450	-0.077855	-0.270568	0.959548	0.635381	-0.755147	-0.161380	0.768264	0.597114	0.230706
16254	9.379535	-1.573650	2.342306	-0.010967	-0.004500	-0.013069	-0.077830	-0.270445	0.959584	0.635325	-0.755209	-0.161315	0.768313	0.597092	0.230598
16255	9.393613	-1.541294	2.337426	-0.008038	0.001352	-0.014112	-0.077865	-0.270349	0.959609	0.635291	-0.755256	-0.161228	0.768338	0.597076	0.230558
16256	9.427511	-1.519056	2.323459	-0.007354	0.007029	-0.014360	-0.077937	-0.270284	0.959621	0.635261	-0.755299	-0.161142	0.768355	0.597051	0.230567
16257	9.368037	-1.503587	2.370683	-0.013199	0.001833	-0.018860	-0.078005	-0.270155	0.959652	0.635183	-0.755390	-0.161022	0.768413	0.596994	0.230522
16258	9.359854	-1.525418	2.316272	-0.022147	0.004495	-0.020888	-0.078099	-0.270026	0.959680	0.635034	-0.755540	-0.160908	0.768526	0.596863	0.230483
16259	9.331815	-1.537062	2.271115	-0.027250	-0.004455	-0.021497	-0.078137	-0.269840	0.959730	0.634845	-0.755723	-0.160794	0.768678	0.596716	0.230356
16260	9.392171	-1.566232	2.241149	-0.027948	-0.006984	-0.022632	-0.078154	-0.269629	0.959788	0.634650	-0.755911	-0.160676	0.768837	0.596572	0.230198
16261	9.379141	-1.612859	2.262413	-0.031703	-0.009518	-0.017842	-0.078128	-0.269441	0.959843	0.634433	-0.756108	-0.160609	0.769019	0.596408	0.230015
16262	9.365887	-1.643414	2.265296	-0.027219	-0.015674	-0.012851	-0.078016	-0.269252	0.959905	0.634252	-0.756266	-0.160583	0.769180	0.596293	0.229774
16263	9.386466	-1.652841	2.253612	-0.013005	-0.019943	-0.013035	-0.077880	-0.269038	0.959976	0.634181	-0.756338	-0.160518	0.769252	0.596298	0.229522
16264	9.375538	-1.618475	2.315910	-0.010071	-0.015661	-0.013384	-0.077771	-0.268845	0.960039	0.634131	-0.756395	-0.160448	0.769304	0.596312	0.229309
16265	9.314028	-1.651639	2.283610	-0.007805	-0.018628	-0.012800	-0.077644	-0.268639	0.960106	0.634098	-0.756439	-0.160373	0.769344	0.596350	0.229077
16266	9.323458	-1.643664	2.354070	-0.002484	-0.021584	-0.018145	-0.077520	-0.268376	0.960190	0.634103	-0.756463	-0.160240	0.769353	0.596438	0.228819
16267	9.338340	-1.627184	2.365371	0.003502	-0.023804	-0.017843	-0.077384	-0.268102	0.960278	0.634157	-0.756449	-0.160092	0.769322	0.596578	0.228556
16268	9.389749	-1.557710	2.458163	0.013885	-0.019603	-0.018064	-0.077274	-0.267851	0.960357	0.634288	-0.756376	-0.159922	0.769225	0.596785	0.228343
16269	9.330536	-1.525274	2.485951	0.016761	-0.013972	-0.015280	-0.077199	-0.267654	0.960417	0.634442	-0.756279	-0.159767	0.769105	0.596996	0.228195
16270	9.352254	-1.419021	2.481526	0.019632	-0.001828	-0.019076	-0.077233	-0.267501	0.960457	0.634617	-0.756173	-0.159574	0.768958	0.597198	0.228162
16271	9.386914	-1.428487	2.503300	0.015947	-0.000777	-0.023308	-0.077309	-0.267323	0.960501	0.634760	-0.756102	-0.159345	0.768833	0.597368	0.228140
16272	9.344720	-1.454121	2.445491	-0.005023	0.006091	-0.022108	-0.077423	-0.267195	0.960527	0.634742	-0.756151	-0.159179	0.768836	0.597362	0.228144
16273	9.362611	-1.527226	2.376873	-0.007346	0.010406	-0.019557	-0.077563	-0.267112	0.960539	0.634708	-0.756209	-0.159039	0.768849	0.597327	0.228192
16274	9.380215	-1.583941	2.290206	-0.008017	0.004732	-0.019314	-0.077649	-0.266996	0.960564	0.634670	-0.756269	-0.158907	0.768873	0.597302	0.228178
16275	9.366370	-1.597241	2.277087	0.003133	0.002036	-0.014266	-0.077690	-0.266903	0.960587	0.634720	-0.756251	-0.158793	0.768827	0.597367	0.228162
16276	9.380871	-1.597777	2.308673	0.006053	0.001378	-0.008724	-0.077683	-0.266848	0.960603	0.634797	-0.756199	-0.158730	0.768764	0.597457	0.228138
16277	9.375077	-1.571867	2.331809	0.001638	-0.001902	-0.009578	-0.077664	-0.266767	0.960627	0.634842	-0.756175	-0.158666	0.768728	0.597524	0.228083
16278	9.414977	-1.574476	2.294107	0.000999	-0.005780	-0.013848	-0.077634	-0.266630	0.960667	0.634877	-0.756167	-0.158566	0.768703	0.597596	0.227982
16279	9.414966	-1.556610	2.275744	-0.001269	-0.002815	-0.014431	-0.077639	-0.266507	0.960701	0.634893	-0.756176	-0.158461	0.768690	0.597639	0.227912
16280	9.395652	-1.561720	2.302925	0.001013	-0.007351	-0.013159	-0.077593	-0.266366	0.960744	0.634928	-0.756166	-0.158367	0.768665	0.597715	0.227796
16281	9.367886	-1.590061	2.275875	0.008355	0.000214	-0.012656	-0.077610	-0.266274	0.960768	0.635020	-0.756111	-0.158258	0.768587	0.597825	0.227772
16282	9.387813	-1.582040	2.248160	0.015183	-0.005308	-0.016110	-0.077599	-0.266123	0.960811	0.635163	-0.756024	-0.158103	0.768471	0.598002	0.227698
16283	9.382240	-1.555213	2.270940	0.024139	-0.007953	-0.014091	-0.077562	-0.265971	0.960855	0.635374	-0.755880	-0.157944	0.768300	0.598252	0.227619
16284	9.401925	-1.530559	2.224836	0.024876	-0.010136	-0.010888	-0.077481	-0.265831	0.960901	0.635594	-0.755721	-0.157818	0.768126	0.598515	0.227514
16285	9.381990	-1.502350	2.215949	0.030101	-0.011957	-0.009278	-0.077382	-0.265692	0.960947	0.635857	-0.755526	-0.157691	0.767918	0.598822	0.227406
16286	9.403144	-1.544158	2.241170	0.026438	-0.018994	-0.006235	-0.077203	-0.265533	0.961006	0.636093	-0.755345	-0.157607	0.767741	0.599121	0.227219
16287	9.391687	-1.492902	2.286253	0.034561	-0.013383	-0.006361	-0.077075	-0.265409	0.961050	0.636394	-0.755114	-0.157498	0.767504	0.599467	0.227105
16288	9.372103	-1.481365	2.295241	0.039775	-0.013627	-0.005443	-0.076932	-0.265288	0.961095	0.636732	-0.754851	-0.157391	0.767237	0.599852	0.226989
16289	9.414493	-1.435461	2.334833	0.032223	-0.007493	-0.004505	-0.076838	-0.265212	0.961124	0.637014	-0.754631	-0.157306	0.767013	0.600162	0.226928
16290	9.429085	-1.435803	2.366154	0.032183	-0.002776	-0.006580	-0.076785	-0.265147	0.961146	0.637294	-0.754416	-0.157205	0.766786	0.600461	0.226905
16291	9.400425	-1.431170	2.303829	0.028422	0.001186	-0.008371	-0.076783	-0.265094	0.961161	0.637542	-0.754230	-0.157091	0.766580	0.600719	0.226921
16292	9.400534	-1.429778	2.304248	0.023226	-0.000138	-0.008599	-0.076764	-0.265030	0.961180	0.637751	-0.754074	-0.156990	0.766408	0.600942	0.226909
16293	9.407044	-1.469867	2.299403	0.014352	-0.001997	-0.012365	-0.076763	-0.264927	0.961208	0.637888	-0.753983	-0.156870	0.766294	0.601101	0.226872
16294	9.359587	-1.504764	2.300441	0.008328	-0.001582	-0.008148	-0.076730	-0.264858	0.961230	0.637983	-0.753915	-0.156808	0.766218	0.601217	0.226823
16295	9.385087	-1.505847	2.231204	-0.004888	-0.009654	-0.015199	-0.076688	-0.264688	0.961280	0.637973	-0.753946	-0.156704	0.766230	0.601254	0.226682
16296	9.405456	-1.514863	2.220653	-0.010941	-0.006098	-0.012366	-0.076647	-0.264560	0.961318	0.637918	-0.754005	-0.156645	0.766281	0.601236	0.226560
16297	9.366209	-1.509888	2.257424	-0.008666	-0.004123	-0.017682	-0.076663	-0.264405	0.961360	0.637875	-0.754066	-0.156525	0.766315	0.601228	0.226466
16298	9.415011	-1.505336	2.291659	-0.008621	-0.008836	-0.015607	-0.076622	-0.264236	0.961410	0.637835	-0.754120	-0.156430	0.766352	0.601234	0.226321
16299	9.400980	-1.502461	2.259632	-0.007957	-0.003160	-0.015860	-0.076634	-0.264100	0.961446	0.637799	-0.754171	-0.156326	0.766381	0.601229	0.226238
16300	9.401687	-1.517530	2.277282	-0.007203	-0.001976	-0.017862	-0.076660	-0.263955	0.961484	0.637768	-0.754223	-0.156206	0.766404	0.601229	0.226161
16301	9.415215	-1.468042	2.254373	-0.006450	-0.000793	-0.019865	-0.076716	-0.263803	0.961521	0.637741	-0.754275	-0.156061	0.766421	0.601229	0.226103
16302	9.409919	-1.457783	2.295328	-0.010200	0.001595	-0.020963	-0.076789	-0.263657	0.961555	0.637685	-0.754353	-0.155917	0.766460	0.601196	0.226056
16303	9.410205	-1.456093	2.295229	-0.015395	0.000267	-0.021190	-0.076861	-0.263501	0.961592	0.637589	-0.754462	-0.155779	0.766533	0.601127	0.225994
16304	9.438878	-1.441402	2.339682	-0.021418	0.000675	-0.016973	-0.076901	-0.263379	0.961622	0.637449	-0.754597	-0.155700	0.766645	0.601012	0.225920
16305	9.438311	-1.407250	2.303373	-0.027334	-0.000041	-0.019715	-0.076962	-0.263233	0.961658	0.637263	-0.754774	-0.155603	0.766794	0.600853	0.225837
16306	9.446513	-1.366230	2.339577	-0.032636	0.004695	-0.018883	-0.077045	-0.263121	0.961682	0.637036	-0.754981	-0.155530	0.766974	0.600643	0.225785
16307	9.379128	-1.391381	2.350116	-0.047478	0.003466	-0.022261	-0.077148	-0.262976	0.961713	0.636694	-0.755285	-0.155454	0.767248	0.600324	0.225704
16308	9.383027	-1.463813	2.249072	-0.048209	0.000716	-0.019572	-0.077205	-0.262835	0.961747	0.636347	-0.755586	-0.155410	0.767530	0.600006	0.225589
16309	9.398615	-1.497660	2.315491	-0.048108	-0.003767	-0.021330	-0.077247	-0.262654	0.961793	0.635997	-0.755894	-0.155344	0.767815	0.599698	0.225438
16310	9.405043	-1.521754	2.291316	-0.045137	-0.004189	-0.019617	-0.077267	-0.262482	0.961838	0.635673	-0.756177	-0.155293	0.768082	0.599416	0.225280
16311	9.392345	-1.569040	2.312583	-0.047341	-0.007513	-0.017443	-0.077256	-0.262308	0.961887	0.635332	-0.756470	-0.155262	0.768365	0.599123	0.225094
16312	9.296838	-1.607973	2.277145	-0.044388	-0.006364	-0.016418	-0.077238	-0.262147	0.961932	0.635016	-0.756740	-0.155240	0.768628	0.598852	0.224917
16313	9.347130	-1.653732	2.364151	-0.038197	-0.017536	-0.019643	-0.077163	-0.261897	0.962006	0.634746	-0.756981	-0.155167	0.768859	0.598656	0.224649
16314	9.353409	-1.661020	2.321083	-0.021133	-0.014547	-0.017749	-0.077091	-0.261678	0.962072	0.634607	-0.757115	-0.155080	0.768980	0.598583	0.224429
16315	9.381056	-1.596982	2.310408	-0.006279	-0.014893	-0.013681	-0.076997	-0.261489	0.962130	0.634590	-0.757148	-0.154994	0.769004	0.598624	0.224237
16316	9.356459	-1.594062	2.377775	0.012307	-0.016055	-0.009208	-0.076859	-0.261325	0.962186	0.634715	-0.757059	-0.154913	0.768914	0.598807	0.224054
16317	9.391468	-1.604456	2.398001	0.013845	-0.016822	-0.011833	-0.076740	-0.261139	0.962246	0.634851	-0.756968	-0.154799	0.768814	0.599004	0.223874
16318	9.369641	-1.640987	2.329043	0.022734	-0.013159	-0.012577	-0.076645	-0.260967	0.962300	0.635054	-0.756826	-0.154663	0.768656	0.599259	0.223735
16319	9.378132	-1.599521	2.364519	0.014598	-0.015631	-0.013834	-0.076548	-0.260772	0.962361	0.635195	-0.756735	-0.154529	0.768549	0.599458	0.223568
16320	9.358697	-1.587755	2.373182	0.022032	-0.014110	-0.014406	-0.076458	-0.260581	0.962420	0.635391	-0.756602	-0.154376	0.768396	0.599710	0.223419
16321	9.359304	-1.585916	2.372018	0.024331	-0.018638	-0.013139	-0.076333	-0.260374	0.962486	0.635609	-0.756449	-0.154227	0.768228	0.599992	0.223238
16322	9.339434	-1.557570	2.362555	0.027281	-0.017490	-0.012115	-0.076202	-0.260179	0.962549	0.635847	-0.756278	-0.154085	0.768044	0.600292	0.223064
16323	9.335494	-1.580471	2.438276	0.036247	-0.020110	-0.010109	-0.076048	-0.259986	0.962613	0.636156	-0.756048	-0.153939	0.767804	0.600665	0.222887
16324	9.321756	-1.576955	2.405377	0.040107	-0.026973	-0.010779	-0.075836	-0.259744	0.962695	0.636493	-0.755796	-0.153781	0.767545	0.601087	0.222642
16325	9.314605	-1.615061	2.366973	0.040088	-0.028769	-0.006265	-0.075591	-0.259527	0.962773	0.636833	-0.755534	-0.153663	0.767288	0.601510	0.222387
16326	9.368837	-1.601871	2.341051	0.049731	-0.023906	-0.009028	-0.075392	-0.259317	0.962845	0.637245	-0.755219	-0.153501	0.766965	0.601995	0.222186
16327	9.361994	-1.525289	2.308726	0.054244	-0.025091	-0.009944	-0.075200	-0.259094	0.962920	0.637690	-0.754881	-0.153316	0.766614	0.602515	0.221989
16328	9.376213	-1.491442	2.302560	0.052799	-0.023857	-0.014977	-0.075039	-0.258839	0.963001	0.638121	-0.754562	-0.153091	0.766270	0.603024	0.221793
16329	9.453969	-1.471776	2.380744	0.052019	-0.018523	-0.019569	-0.074959	-0.258583	0.963076	0.638541	-0.754262	-0.152818	0.765928	0.603509	0.221655
16330	9.432217	-1.507358	2.311953	0.043842	-0.021230	-0.016983	-0.074831	-0.258329	0.963154	0.638902	-0.754002	-0.152593	0.765640	0.603943	0.221470
16331	9.458450	-1.523334	2.259715	0.043868	-0.022794	-0.016295	-0.074697	-0.258072	0.963234	0.639263	-0.753741	-0.152371	0.765351	0.604378	0.221278
16332	9.444099	-1.502823	2.209064	0.050543	-0.020869	-0.015573	-0.074563	-0.257830	0.963309	0.639676	-0.753437	-0.152145	0.765020	0.604861	0.221107
16333	9.451119	-1.410911	2.189930	0.045356	-0.022204	-0.015791	-0.074430	-0.257580	0.963386	0.640048	-0.753165	-0.151924	0.764722	0.605305	0.220922
16334	9.445864	-1.383110	2.211451	0.037982	-0.021715	-0.023552	-0.074342	-0.257273	0.963475	0.640358	-0.752957	-0.151649	0.764470	0.605695	0.220723
16335	9.459850	-1.462962	2.199978	0.029798	-0.021067	-0.026170	-0.074284	-0.256952	0.963565	0.640605	-0.752804	-0.151363	0.764269	0.606021	0.220526
16336	9.447823	-1.508106	2.221209	0.019289	-0.021059	-0.020325	-0.074180	-0.256673	0.963647	0.640775	-0.752700	-0.151160	0.764136	0.606268	0.220305
16337	9.400662	-1.525592	2.202800	0.028313	-0.023426	-0.022162	-0.074079	-0.256368	0.963736	0.641012	-0.752548	-0.150916	0.763948	0.606586	0.220083
16338	9.382095	-1.529318	2.228891	0.036508	-0.024058	-0.019552	-0.073947	-0.256076	0.963824	0.641313	-0.752337	-0.150683	0.763707	0.606971	0.219858
16339	9.381676	-1.493875	2.191262	0.043891	-0.021163	-0.017018	-0.073831	-0.255823	0.963900	0.641673	-0.752077	-0.150455	0.763417	0.607400	0.219681
16340	9.407982	-1.395323	2.144031	0.048447	-0.022118	-0.021769	-0.073729	-0.255526	0.963987	0.642064	-0.751799	-0.150174	0.763098	0.607869	0.219493
16341	9.402765	-1.367115	2.165518	0.038784	-0.022059	-0.024889	-0.073656	-0.255208	0.964076	0.642378	-0.751589	-0.149881	0.762840	0.608262	0.219300
16342	9.416390	-1.315696	2.140919	0.023974	-0.021347	-0.036564	-0.073655	-0.254805	0.964183	0.642572	-0.751497	-0.149511	0.762677	0.608545	0.219082
16343	9.446492	-1.429130	2.196845	0.010488	-0.020938	-0.032415	-0.073640	-0.254437	0.964282	0.642663	-0.751480	-0.149208	0.762602	0.608720	0.218856
16344	9.452132	-1.532724	2.131065	0.024664	-0.023946	-0.025701	-0.073550	-0.254099	0.964378	0.642869	-0.751356	-0.148942	0.762436	0.609014	0.218615
16345	9.501074	-1.509447	2.145497	0.041237	-0.031019	-0.025373	-0.073414	-0.253722	0.964487	0.643200	-0.751133	-0.148638	0.762171	0.609446	0.218337
16346	9.522630	-1.418179	2.156623	0.050755	-0.023430	-0.021916	-0.073303	-0.253416	0.964576	0.643608	-0.750840	-0.148352	0.761837	0.609934	0.218139
16347	9.444716	-1.407765	2.230632	0.049174	-0.019516	-0.020683	-0.073224	-0.253144	0.964653	0.644002	-0.750557	-0.148077	0.761512	0.610396	0.217984
16348	9.432174	-1.436136	2.234348	0.048500	-0.022041	-0.021810	-0.073124	-0.252847	0.964739	0.644392	-0.750277	-0.147796	0.761191	0.610863	0.217796
16349	9.457099	-1.418995	2.145371	0.038315	-0.032153	-0.026388	-0.072985	-0.252456	0.964852	0.644701	-0.750072	-0.147490	0.760943	0.611276	0.217502
16350	9.445640	-1.463170	2.165944	0.033196	-0.033073	-0.034249	-0.072881	-0.251998	0.964980	0.644966	-0.749916	-0.147123	0.760728	0.611656	0.217185
16351	9.414951	-1.513604	2.214415	0.021922	-0.030919	-0.031590	-0.072785	-0.251575	0.965097	0.645147	-0.749822	-0.146803	0.760583	0.611945	0.216879
16352	9.439500	-1.594392	2.102178	0.021928	-0.030912	-0.031593	-0.072681	-0.251150	0.965216	0.645329	-0.749728	-0.146487	0.760440	0.612234	0.216565
16353	9.446714	-1.615862	2.076762	0.034692	-0.032464	-0.033761	-0.072588	-0.250701	0.965339	0.645603	-0.749564	-0.146118	0.760215	0.612620	0.216262
16354	9.468356	-1.523775	2.087105	0.045123	-0.031292	-0.032683	-0.072488	-0.250265	0.965460	0.645960	-0.749330	-0.145741	0.759922	0.613084	0.215978
16355	9.409468	-1.489665	2.114417	0.043569	-0.027167	-0.035284	-0.072444	-0.249837	0.965574	0.646302	-0.749113	-0.145339	0.759635	0.613523	0.215739
16356	9.412162	-1.517791	2.148675	0.041457	-0.030060	-0.040741	-0.072406	-0.249348	0.965703	0.646624	-0.748922	-0.144892	0.759364	0.613956	0.215461
16357	9.374639	-1.623611	2.180068	0.050480	-0.030812	-0.043307	-0.072388	-0.248838	0.965836	0.647013	-0.748681	-0.144398	0.759035	0.614456	0.215196
16358	9.518892	-1.638428	2.185989	0.069443	-0.038750	-0.050790	-0.072349	-0.248220	0.965998	0.647540	-0.748341	-0.143794	0.758589	0.615119	0.214874
16359	9.636270	-1.601080	2.206855	0.095270	-0.026024	-0.045009	-0.072380	-0.247725	0.966123	0.648264	-0.747831	-0.143186	0.757968	0.615939	0.214719
16360	9.625331	-1.544050	2.252098	0.098738	-0.012899	-0.047108	-0.072515	-0.247295	0.966223	0.649015	-0.747300	-0.142555	0.757312	0.616756	0.214688
16361	9.633324	-1.480232	2.270486	0.095528	0.000037	-0.054430	-0.072803	-0.246891	0.966305	0.649735	-0.746807	-0.141857	0.756667	0.617514	0.214784
16362	9.552156	-1.498526	2.253124	0.091576	0.011789	-0.059739	-0.073208	-0.246518	0.966369	0.650421	-0.746350	-0.141119	0.756038	0.618216	0.214979
16363	9.511004	-1.536560	2.216781	0.078888	0.013745	-0.065236	-0.073672	-0.246119	0.966436	0.651002	-0.745988	-0.140351	0.755492	0.618812	0.215182
16364	9.504033	-1.568679	2.183468	0.073141	0.010468	-0.078043	-0.074187	-0.245602	0.966528	0.651534	-0.745687	-0.139476	0.754983	0.619379	0.215338
16365	9.498881	-1.534398	2.208268	0.053669	0.013348	-0.081790	-0.074756	-0.245077	0.966617	0.651913	-0.745519	-0.138602	0.754600	0.619789	0.215501
16366	9.371855	-1.604961	2.211771	0.045263	0.019768	-0.079531	-0.075350	-0.244607	0.966690	0.652232	-0.745394	-0.137772	0.754265	0.620125	0.215707
16367	9.298073	-1.751741	2.341046	0.037269	0.014494	-0.086978	-0.075963	-0.244051	0.966783	0.652481	-0.745340	-0.136884	0.753988	0.620409	0.215857
16368	9.353515	-1.933266	2.466010	0.052050	0.020452	-0.082010	-0.076579	-0.243567	0.966856	0.652848	-0.745178	-0.136014	0.753608	0.620794	0.216078
16369	9.498373	-2.047149	2.646811	0.089470	0.020521	-0.077866	-0.077177	-0.243118	0.966921	0.653499	-0.744773	-0.135102	0.752983	0.621455	0.216357
16370	9.699088	-2.114474	2.899707	0.153227	0.038764	-0.060635	-0.077793	-0.242908	0.966925	0.654642	-0.743928	-0.134219	0.751926	0.622548	0.216890
16371	9.767885	-2.031525	3.164317	0.243438	0.073922	-0.033495	-0.078503	-0.243124	0.966813	0.656478	-0.742456	-0.133400	0.750249	0.624220	0.217890
16372	9.666913	-1.924355	3.494408	0.335097	0.117727	-0.009510	-0.079374	-0.243789	0.966575	0.659018	-0.740344	-0.132612	0.747927	0.626464	0.219426
16373	9.594805	-1.677592	3.816485	0.420353	0.163528	0.000713	-0.080525	-0.244825	0.966218	0.662192	-0.737666	-0.131726	0.744995	0.629214	0.221522
16374	9.540569	-1.451591	4.151659	0.492947	0.220845	0.000939	-0.082087	-0.246224	0.965730	0.665893	-0.734514	-0.130672	0.741517	0.632347	0.224253
16375	9.600840	-1.132661	4.398056	0.541716	0.271958	-0.033247	-0.084258	-0.247709	0.965164	0.669906	-0.731125	-0.129161	0.737650	0.635686	0.227544
16376	9.546926	-0.833263	4.565859	0.569878	0.349402	-0.073364	-0.087248	-0.249399	0.964462	0.674071	-0.727635	-0.127180	0.733495	0.639020	0.231598
16377	9.409634	-0.685031	4.736561	0.580527	0.414689	-0.109848	-0.090961	-0.251263	0.963635	0.678254	-0.724153	-0.124796	0.729176	0.642238	0.236290
16378	9.155820	-0.643219	4.981947	0.553412	0.483701	-0.137767	-0.095342	-0.253379	0.962657	0.682186	-0.720898	-0.122182	0.724936	0.645062	0.241584
16379	9.004997	-0.660566	5.145999	0.511564	0.543251	-0.165616	-0.100342	-0.255703	0.961534	0.685758	-0.717974	-0.119370	0.720880	0.647402	0.247393
16380	9.128144	-0.761936	5.176014	0.468706	0.599460	-0.204326	-0.105983	-0.258123	0.960281	0.688954	-0.715419	-0.116266	0.717015	0.649267	0.253657
16381	9.309415	-0.852401	5.282472	0.465602	0.679880	-0.239454	-0.112440	-0.260837	0.958812	0.692057	-0.712975	-0.112802	0.713032	0.650869	0.260681
16382	9.310245	-1.031154	5.796090	0.477668	0.759566	-0.237551	-0.119415	-0.264093	0.957076	0.695215	-0.710444	-0.109296	0.708814	0.652322	0.268439
16383	8.962725	-1.035086	6.110328	0.447558	0.728666	-0.213084	-0.125993	-0.267346	0.955328	0.698152	-0.708048	-0.106070	0.704776	0.653601	0.275857
16384	8.599087	-0.903393	5.966615	0.365535	0.641223	-0.218607	-0.131958	-0.269990	0.953778	0.700478	-0.706203	-0.102995	0.701369	0.654509	0.282311
16385	8.649512	-0.570523	5.786412	0.262658	0.575193	-0.222827	-0.137492	-0.272191	0.952370	0.702053	-0.705047	-0.100151	0.698726	0.654844	0.288031
16386	8.970924	-0.380912	5.652440	0.103656	0.547780	-0.227073	-0.142838	-0.274172	0.951014	0.702496	-0.704947	-0.097721	0.697207	0.654125	0.293298
16387	9.259064	-0.514949	5.124223	-0.105192	0.518018	-0.243201	-0.148103	-0.275848	0.949723	0.701446	-0.706262	-0.095749	0.697165	0.651998	0.298092
16388	9.545936	-0.615280	3.949951	-0.309408	0.497171	-0.248155	-0.153238	-0.277322	0.948478	0.698951	-0.708919	-0.094354	0.698560	0.648481	0.302467
16389	9.669847	-0.691060	2.732112	-0.416263	0.552589	-0.233831	-0.158683	-0.279241	0.947019	0.695711	-0.712220	-0.093434	0.700576	0.644025	0.307288
16390	9.905113	-0.687263	2.291640	-0.412943	0.644867	-0.223375	-0.164685	-0.281782	0.945240	0.692492	-0.715454	-0.092632	0.702378	0.639315	0.312956
16391	9.982313	-0.704736	2.089131	-0.293298	0.765109	-0.205759	-0.171431	-0.285192	0.943015	0.690123	-0.717866	-0.091644	0.703095	0.635085	0.319883
16392	9.664495	-0.460973	2.462567	-0.176363	0.819618	-0.172400	-0.178310	-0.289142	0.940533	0.688621	-0.719437	-0.090621	0.702856	0.631512	0.327392
16393	9.354999	-0.356920	2.632822	-0.162672	0.772323	-0.127943	-0.184564	-0.293095	0.938100	0.687284	-0.720793	-0.089983	0.702550	0.628134	0.334472
16394	9.138577	-0.170889	2.431139	-0.234504	0.702189	-0.070030	-0.189907	-0.296986	0.935807	0.685546	-0.722427	-0.090148	0.702825	0.624418	0.340792
16395	8.996403	-0.197287	1.935399	-0.367458	0.664300	-0.037686	-0.194785	-0.300856	0.933565	0.682928	-0.724785	-0.091083	0.704038	0.619816	0.346640
16396	8.559623	-0.401890	1.337792	-0.486474	0.667229	-0.023574	-0.199578	-0.304802	0.931270	0.679492	-0.727817	-0.092592	0.706017	0.614311	0.352366
16397	8.093749	-0.766709	1.037127	-0.552072	0.653604	-0.024494	-0.204312	-0.308628	0.928981	0.675578	-0.731227	-0.094349	0.708414	0.608322	0.357901
16398	7.751890	-1.213831	0.978083	-0.592505	0.599105	-0.045604	-0.208800	-0.311920	0.926881	0.671320	-0.734913	-0.096089	0.711149	0.602170	0.362848
16399	7.730521	-1.904595	0.851334	-0.563677	0.525114	-0.061736	-0.212900	-0.314622	0.925033	0.667214	-0.738444	-0.097598	0.713792	0.596417	0.367135
16400	7.761298	-2.507548	0.948299	-0.443939	0.432989	-0.051432	-0.216265	-0.316816	0.923503	0.663973	-0.741203	-0.098787	0.715800	0.591816	0.370653
16401	7.826724	-3.142223	1.207385	-0.249064	0.347924	-0.006533	-0.218744	-0.318831	0.922224	0.662216	-0.742654	-0.099678	0.716674	0.588908	0.373586
16402	8.014189	-3.856817	1.537409	0.004686	0.258078	0.040804	-0.220251	-0.320655	0.921233	0.662381	-0.742454	-0.100064	0.716059	0.588168	0.375922
16403	8.217227	-4.367356	1.919433	0.312539	0.177616	0.096510	-0.220820	-0.322428	0.920478	0.664870	-0.740262	-0.099801	0.713573	0.589960	0.377837
16404	8.414659	-4.567442	2.221121	0.653696	0.129737	0.163555	-0.220580	-0.324405	0.919840	0.669922	-0.735820	-0.098856	0.708907	0.594416	0.379633
16405	8.571769	-4.528765	2.632518	1.006682	0.080662	0.234262	-0.219509	-0.326614	0.919315	0.677580	-0.728996	-0.097209	0.701927	0.601571	0.381328
16406	8.752907	-4.213348	3.023335	1.383206	0.070346	0.307531	-0.217828	-0.329268	0.918767	0.687937	-0.719556	-0.094774	0.692311	0.611410	0.383255
16407	8.973714	-3.575203	3.574577	1.720159	0.092110	0.379511	-0.215761	-0.332556	0.918071	0.700605	-0.707636	-0.091676	0.680147	0.623424	0.385670
16408	9.000146	-2.639727	4.155159	1.982278	0.167328	0.446138	-0.213658	-0.336734	0.917039	0.714943	-0.693608	-0.088118	0.665738	0.636803	0.388940
16409	8.940726	-1.510402	4.703949	2.164731	0.244099	0.496974	-0.211607	-0.341722	0.915668	0.730275	-0.677939	-0.084240	0.649554	0.650864	0.393008
16410	8.720255	-0.186406	5.223577	2.256319	0.341278	0.523143	-0.209862	-0.347466	0.913907	0.745877	-0.661247	-0.080128	0.632160	0.664846	0.397937
16411	8.454209	1.097453	5.731354	2.241360	0.418770	0.527441	-0.208434	-0.353727	0.911829	0.760987	-0.644301	-0.075991	0.614373	0.678051	0.403476
16412	8.228755	2.261431	6.163406	2.111955	0.484093	0.514322	-0.207346	-0.360301	0.909500	0.774887	-0.627972	-0.072116	0.597124	0.689807	0.409401
16413	8.053647	3.217216	6.832968	1.873951	0.558635	0.486311	-0.206779	-0.367203	0.906865	0.786972	-0.613138	-0.068827	0.581307	0.699445	0.415762
16414	7.894212	3.912960	7.271160	1.571008	0.607603	0.443236	-0.206689	-0.374154	0.904040	0.796948	-0.600400	-0.066282	0.567585	0.706773	0.422278
16415	7.753287	4.341097	7.477048	1.187164	0.628604	0.376768	-0.207150	-0.380856	0.901131	0.804436	-0.590511	-0.064653	0.556752	0.711509	0.428698
16416	7.523823	4.289465	7.208421	0.637913	0.608979	0.339648	-0.207712	-0.387177	0.898304	0.808706	-0.584613	-0.064979	0.550319	0.712967	0.434543
16417	7.440176	3.873184	6.612680	0.065961	0.582015	0.314251	-0.208315	-0.393155	0.895564	0.809755	-0.582870	-0.067526	0.548545	0.711120	0.439780
16418	7.098910	3.225632	6.137826	-0.441126	0.569071	0.272663	-0.209169	-0.398768	0.892879	0.807934	-0.584866	-0.071938	0.550901	0.706340	0.444514
16419	6.235366	2.460567	5.462857	-0.867362	0.483672	0.219654	-0.210029	-0.403457	0.890567	0.803623	-0.590034	-0.077781	0.556846	0.699344	0.448152
16420	5.803009	1.765793	4.463343	-1.298506	0.316671	0.186734	-0.210244	-0.406756	0.889014	0.796757	-0.598250	-0.085295	0.566547	0.690396	0.449865
16421	5.456892	1.054569	3.267769	-1.700477	0.123789	0.199450	-0.209327	-0.408809	0.888289	0.787464	-0.609039	-0.094725	0.579727	0.679667	0.449411
16422	5.289253	0.066295	2.263775	-2.007439	-0.082280	0.182652	-0.207346	-0.409370	0.888495	0.776083	-0.621767	-0.105364	0.595569	0.667699	0.446626
16423	5.363436	-1.432426	1.264342	-2.196467	-0.212705	0.166218	-0.204734	-0.409012	0.889266	0.763189	-0.635565	-0.116616	0.612883	0.654803	0.442275
16424	5.247639	-3.155028	0.634855	-2.245890	-0.339508	0.214575	-0.200929	-0.408183	0.890513	0.749698	-0.649201	-0.128416	0.630539	0.641814	0.436458
16425	4.803887	-4.984585	0.736227	-2.121823	-0.520746	0.291169	-0.195389	-0.406785	0.892384	0.736756	-0.661463	-0.140208	0.647313	0.630074	0.428943
16426	5.352295	-6.676105	1.980615	-1.701535	-0.842630	0.339647	-0.187319	-0.403768	0.895479	0.726310	-0.670694	-0.150481	0.661352	0.622207	0.418894
16427	6.763056	-7.431685	3.733873	-0.865301	-1.058510	0.443217	-0.177013	-0.400179	0.899179	0.721397	-0.674243	-0.158056	0.669516	0.620687	0.408038
16428	8.125809	-6.406703	6.981322	0.113168	-1.182767	0.487623	-0.165494	-0.396083	0.903178	0.723029	-0.671550	-0.162020	0.670702	0.626210	0.397517
16429	12.486769	-6.943357	13.055666	0.656819	-1.432569	0.453139	-0.152560	-0.390082	0.908054	0.728184	-0.665575	-0.163577	0.668187	0.636275	0.385591
16430	21.767434	-8.421733	15.046920	1.770259	-1.434738	0.607776	-0.138515	-0.384827	0.912536	0.740837	-0.651756	-0.162400	0.657247	0.653546	0.375372
16431	26.777937	-0.148422	9.832889	3.663926	-0.513427	0.757722	-0.129447	-0.386255	0.913264	0.765478	-0.624372	-0.155572	0.630307	0.678945	0.376493
16432	15.724230	11.959918	6.075625	3.691892	0.475691	0.784090	-0.126209	-0.394309	0.910270	0.789246	-0.595811	-0.148663	0.600968	0.699664	0.386403
16433	5.340457	15.363915	2.265807	2.052871	0.099375	0.610675	-0.121890	-0.398602	0.908988	0.802204	-0.578857	-0.146265	0.584475	0.711366	0.390316
16434	6.027830	13.066833	0.297966	-0.496389	-0.445729	-0.180704	-0.120651	-0.394371	0.910997	0.799104	-0.583051	-0.146571	0.588961	0.710298	0.385489
16435	6.962710	8.768166	-2.659138	-2.811282	0.012179	-0.770054	-0.126769	-0.389877	0.912100	0.781315	-0.605760	-0.150341	0.611128	0.693578	0.381408
16436	6.384970	2.000952	-2.130406	-3.414535	0.046425	-0.819937	-0.133303	-0.385109	0.913193	0.758965	-0.632210	-0.155825	0.637340	0.672310	0.376560
16437	7.374915	-6.290979	0.757879	-2.594151	-0.573794	-0.448957	-0.132916	-0.378409	0.916046	0.741607	-0.651136	-0.161372	0.657535	0.657897	0.367177
16438	10.777880	-12.129921	0.501662	-1.749384	-1.109643	-0.007113	-0.125521	-0.371096	0.920072	0.730005	-0.662562	-0.167643	0.671816	0.650615	0.354068
16439	12.343133	-12.216339	-0.426423	-1.147184	-1.014472	0.320276	-0.116284	-0.366649	0.923064	0.722667	-0.668779	-0.174606	0.681344	0.646764	0.342734
16440	11.047496	-7.537351	0.688727	-0.435897	-0.687520	0.447478	-0.108286	-0.365194	0.924612	0.720227	-0.669914	-0.180247	0.685235	0.646413	0.335565
16441	8.169569	-3.761698	1.804842	-0.167127	-0.610657	0.511416	-0.100361	-0.364671	0.925712	0.719650	-0.669084	-0.185555	0.687045	0.647566	0.329585
16442	7.315399	-3.163886	1.509152	-0.046899	-0.858896	0.469267	-0.091005	-0.362228	0.927636	0.719812	-0.667637	-0.190086	0.688178	0.650425	0.321495
16443	8.495255	-2.790949	1.047343	0.220665	-0.957693	0.309857	-0.082130	-0.358044	0.930086	0.721633	-0.665035	-0.192287	0.687386	0.655388	0.312996
16444	9.502301	-1.822870	1.259939	0.432418	-0.887558	0.142171	-0.074939	-0.353137	0.932565	0.724746	-0.661636	-0.192304	0.684928	0.661462	0.305518
16445	9.946260	-0.979129	1.270628	0.364749	-0.826922	0.027444	-0.069029	-0.347829	0.935013	0.727295	-0.659072	-0.191484	0.682845	0.666813	0.298469
16446	10.122598	-0.974991	0.903649	0.122156	-0.819640	-0.012447	-0.063452	-0.342260	0.937460	0.728154	-0.658252	-0.191038	0.682470	0.670494	0.290985
16447	10.100174	-1.399143	0.325244	-0.074240	-0.846604	-0.022036	-0.057773	-0.336428	0.939935	0.727668	-0.658781	-0.191069	0.683492	0.672922	0.282868
16448	10.274807	-1.873940	-0.191971	-0.198559	-0.885157	-0.037153	-0.051912	-0.330213	0.942478	0.726322	-0.660197	-0.191305	0.685392	0.674611	0.274113
16449	10.658737	-2.089185	-0.272801	-0.163011	-0.886573	-0.026548	-0.045963	-0.324047	0.944924	0.725224	-0.661340	-0.191520	0.686978	0.676478	0.265404
16450	10.505644	-2.007202	0.107000	-0.075423	-0.871987	0.006276	-0.039851	-0.318172	0.947195	0.724740	-0.661786	-0.191809	0.687869	0.678827	0.256965
16451	10.283269	-1.851062	0.485111	-0.027073	-0.873694	0.032856	-0.033541	-0.312445	0.949344	0.724599	-0.661823	-0.192216	0.688354	0.681446	0.248595
16452	9.916258	-1.725322	0.842517	-0.029686	-0.865677	0.053329	-0.027121	-0.306880	0.951362	0.724443	-0.661815	-0.192830	0.688801	0.683978	0.240266
16453	9.675749	-1.518276	1.148788	-0.091207	-0.861813	0.052234	-0.020742	-0.301318	0.953298	0.723859	-0.662237	-0.193570	0.689636	0.686039	0.231848
16454	9.604204	-1.238345	1.303352	-0.223848	-0.857452	0.040814	-0.014453	-0.295694	0.955173	0.722352	-0.663608	-0.194504	0.691374	0.687160	0.223187
16455	9.455093	-0.941423	1.594743	-0.384485	-0.831191	0.022265	-0.008473	-0.290126	0.956951	0.719723	-0.666142	-0.195586	0.694210	0.687083	0.214455
16456	9.307810	-1.002211	1.900047	-0.562636	-0.819754	-0.002371	-0.002710	-0.284476	0.958679	0.715837	-0.669966	-0.196781	0.698262	0.685725	0.205454
16457	9.246909	-1.444035	2.288474	-0.689475	-0.779849	-0.048180	0.002472	-0.278809	0.960343	0.711037	-0.674779	-0.197733	0.703150	0.683329	0.196575
16458	9.122814	-2.034553	2.595663	-0.750642	-0.719017	-0.091361	0.006972	-0.273281	0.961909	0.705775	-0.680106	-0.198336	0.708402	0.680274	0.188133
16459	8.979742	-2.633886	2.680061	-0.734020	-0.661876	-0.110619	0.010961	-0.268030	0.963348	0.700598	-0.685346	-0.198653	0.713472	0.677098	0.180269
16460	8.876026	-2.826222	2.647959	-0.673609	-0.636638	-0.119996	0.014753	-0.262897	0.964711	0.695824	-0.690173	-0.198723	0.718061	0.674200	0.172748
16461	8.935916	-2.901245	2.610136	-0.574746	-0.640096	-0.122142	0.018575	-0.257741	0.966035	0.691738	-0.694318	-0.198547	0.721910	0.671931	0.165392
16462	9.055066	-2.649499	2.488662	-0.471244	-0.620035	-0.127651	0.022253	-0.252687	0.967292	0.688386	-0.697765	-0.198114	0.725003	0.670279	0.158419
16463	9.205404	-2.192545	2.377107	-0.413460	-0.615887	-0.135521	0.025856	-0.247614	0.968514	0.685447	-0.700832	-0.197477	0.727663	0.668971	0.151605
16464	9.309877	-1.636677	2.256672	-0.405955	-0.597602	-0.146739	0.029282	-0.242585	0.969688	0.682559	-0.703863	-0.196696	0.730243	0.667629	0.144968
16465	9.344729	-1.476633	2.227983	-0.429203	-0.579940	-0.151080	0.032556	-0.237652	0.970805	0.679498	-0.707048	-0.195872	0.732955	0.666036	0.138465
16466	9.288746	-1.635443	2.163918	-0.459665	-0.562323	-0.147449	0.035760	-0.232863	0.971852	0.676203	-0.710412	-0.195101	0.735847	0.664146	0.132059
16467	9.232723	-2.150359	2.248129	-0.439780	-0.544372	-0.128887	0.038963	-0.228336	0.972803	0.673041	-0.713586	-0.194449	0.738578	0.662312	0.125876
16468	9.130328	-2.712398	2.297854	-0.350185	-0.526353	-0.081429	0.042382	-0.224267	0.973606	0.670515	-0.716048	-0.194128	0.740685	0.661045	0.120027
16469	9.194098	-2.838916	2.549222	-0.211765	-0.528215	-0.038824	0.046097	-0.220500	0.974297	0.668994	-0.717495	-0.194034	0.741837	0.660743	0.114438
16470	9.256939	-2.769171	2.813724	-0.091062	-0.512236	0.004459	0.050001	-0.217143	0.974858	0.668347	-0.718047	-0.194220	0.742168	0.661254	0.109224
16471	9.197456	-2.664131	3.159777	-0.001569	-0.493631	0.041983	0.054004	-0.214181	0.975300	0.668344	-0.717928	-0.194668	0.741889	0.662349	0.104376
16472	9.291707	-2.515351	3.499557	0.041826	-0.469183	0.064289	0.057986	-0.211528	0.975650	0.668649	-0.717474	-0.195294	0.741314	0.663692	0.099834
16473	9.282769	-2.342153	3.909366	0.044737	-0.415903	0.087799	0.061714	-0.209399	0.975881	0.668958	-0.716953	-0.196144	0.740733	0.664928	0.095834
16474	9.090201	-2.533526	4.486094	-0.001684	-0.351949	0.109554	0.065126	-0.207840	0.975992	0.668906	-0.716697	-0.197257	0.740488	0.665694	0.092349
16475	9.022132	-2.694964	4.724517	-0.069080	-0.307724	0.114757	0.068229	-0.206620	0.976040	0.668349	-0.716880	-0.198478	0.740712	0.665877	0.089182
16476	9.126029	-2.194631	4.352728	-0.141846	-0.261975	0.097203	0.070893	-0.205569	0.976071	0.667260	-0.717584	-0.199593	0.741444	0.665443	0.086297
16477	8.912236	-1.215825	3.758504	-0.300671	-0.218240	0.052067	0.072915	-0.204502	0.976147	0.665020	-0.719437	-0.200396	0.743257	0.663769	0.083540
16478	8.695963	-0.624548	3.088332	-0.567001	-0.227144	-0.038705	0.074424	-0.202716	0.976405	0.660854	-0.723230	-0.200525	0.746815	0.660186	0.080140
16479	8.816540	-0.891525	2.292982	-0.888803	-0.270527	-0.156200	0.075478	-0.199813	0.976923	0.654339	-0.729348	-0.199731	0.752425	0.654314	0.075696
16480	8.981239	-1.790118	1.452493	-1.098290	-0.313908	-0.235070	0.076395	-0.196046	0.977614	0.646246	-0.736920	-0.198279	0.759296	0.646927	0.070397
16481	8.756358	-2.973890	0.860239	-1.147332	-0.366326	-0.244536	0.077672	-0.191890	0.978338	0.637713	-0.744735	-0.196701	0.766348	0.639177	0.064526
16482	8.918772	-4.346235	0.562071	-1.076651	-0.536918	-0.213325	0.080525	-0.186880	0.979077	0.629627	-0.751946	-0.195311	0.772713	0.632181	0.057114
16483	10.009416	-4.989167	-0.142418	-0.894805	-0.662208	-0.148454	0.084782	-0.181606	0.979710	0.622844	-0.757815	-0.194374	0.777738	0.626686	0.048863
16484	10.756619	-4.573492	-0.737020	-0.659145	-0.663291	-0.071491	0.089582	-0.176919	0.980140	0.617799	-0.762025	-0.194014	0.781216	0.622910	0.041037
16485	10.625849	-3.849474	-0.789017	-0.510876	-0.604322	-0.037054	0.094138	-0.172896	0.980431	0.613866	-0.765229	-0.193888	0.783777	0.620106	0.034098
16486	11.303703	-3.043886	-0.365968	-0.408462	-0.588085	-0.113300	0.098132	-0.168389	0.980824	0.610800	-0.767915	-0.192947	0.785680	0.618022	0.027495
16487	12.483069	-2.185103	0.231217	-0.312945	-0.441810	-0.198309	0.100454	-0.164154	0.981307	0.608567	-0.770141	-0.191127	0.787118	0.616390	0.022535
16488	11.984066	-1.580250	0.811874	-0.211842	-0.199010	-0.236659	0.100656	-0.161106	0.981791	0.607167	-0.771795	-0.188895	0.788173	0.615124	0.020132
16489	11.294097	-0.938418	1.499265	-0.192145	-0.057124	-0.269175	0.099530	-0.158692	0.982299	0.605951	-0.773371	-0.186336	0.789251	0.613771	0.019186
16490	10.777846	-0.703056	2.068199	-0.305274	0.033013	-0.297566	0.097542	-0.156592	0.982835	0.603863	-0.775675	-0.183516	0.791098	0.611398	0.018899
16491	10.496457	-0.784961	2.521667	-0.469165	0.121363	-0.317084	0.094725	-0.154884	0.983381	0.600480	-0.778994	-0.180534	0.794009	0.607602	0.019215
16492	10.344532	-0.945637	2.770963	-0.555182	0.222409	-0.329992	0.091053	-0.153656	0.983920	0.596400	-0.782829	-0.177444	0.797507	0.602967	0.020361
16493	10.250909	-1.065410	2.990189	-0.528723	0.332007	-0.336477	0.086453	-0.153029	0.984433	0.592504	-0.786487	-0.174292	0.800915	0.598348	0.022676
16494	10.194360	-1.084551	3.245572	-0.402872	0.423644	-0.336899	0.081135	-0.152905	0.984905	0.589586	-0.789371	-0.171118	0.803620	0.594570	0.026105
16495	10.066085	-0.918002	3.689324	-0.272859	0.523188	-0.312983	0.075134	-0.153554	0.985280	0.587667	-0.791436	-0.168158	0.805607	0.591651	0.030775
16496	9.959451	-0.651177	4.029499	-0.212594	0.624127	-0.292718	0.068456	-0.154924	0.985552	0.586195	-0.793109	-0.165390	0.807273	0.589048	0.036523
16497	9.799265	-0.395719	4.199147	-0.218393	0.757384	-0.277293	0.060760	-0.157195	0.985697	0.584642	-0.794792	-0.162788	0.809013	0.586171	0.043611
16498	9.768506	-0.320924	4.159367	-0.223589	0.919216	-0.279023	0.051760	-0.160353	0.985702	0.583021	-0.796508	-0.160190	0.810806	0.582976	0.052262
16499	9.782052	-0.372947	4.024090	-0.185313	1.110214	-0.276471	0.041185	-0.164626	0.985496	0.581679	-0.798002	-0.157614	0.812375	0.579734	0.062894
16500	9.665888	-0.378598	4.015392	-0.107309	1.273651	-0.261410	0.029385	-0.169909	0.985022	0.580934	-0.799026	-0.155156	0.813420	0.576791	0.075227
16501	9.373507	-0.288009	3.932373	0.012345	1.360856	-0.240089	0.016962	-0.175848	0.984271	0.581124	-0.799337	-0.152822	0.813638	0.574576	0.088631
16502	9.297195	-0.223102	3.854136	0.095507	1.338598	-0.209574	0.004928	-0.181859	0.983312	0.581959	-0.799130	-0.150712	0.813203	0.572990	0.101897
16503	9.552456	-0.210865	3.591424	0.162404	1.288910	-0.188390	-0.006604	-0.187757	0.982193	0.583313	-0.798516	-0.148723	0.812221	0.571944	0.114795
16504	9.927950	-0.388194	3.007638	0.135231	1.292398	-0.171814	-0.018025	-0.193774	0.980881	0.584426	-0.798037	-0.146914	0.811247	0.570604	0.127632
16505	10.165955	-0.394638	2.104490	-0.052431	1.311812	-0.170170	-0.029622	-0.199906	0.979367	0.583996	-0.798637	-0.145352	0.811216	0.567641	0.140402
16506	10.686537	-0.746223	1.384340	-0.452166	1.314190	-0.182275	-0.041285	-0.205873	0.977707	0.580297	-0.801525	-0.144271	0.813358	0.561404	0.152558
16507	11.550155	-0.998533	0.386531	-0.760793	1.465143	-0.198917	-0.054338	-0.212457	0.975659	0.574037	-0.806144	-0.143573	0.817025	0.552262	0.165762
